
time,ax,ay,az,wx,wy,wz,
0.003,0.28,0.50,-1.46,0.11,0.34,0.09,
0.004,0.18,0.67,-1.78,0.11,0.34,0.09,
0.004,0.18,0.67,-1.78,0.05,0.35,0.09,
0.005,0.13,0.76,-1.95,0.05,0.35,0.09,
0.005,0.13,0.76,-1.95,-0.01,0.35,0.09,
0.006,0.13,0.76,-1.95,-0.06,0.36,0.08,
0.007,0.12,0.70,-1.77,-0.06,0.36,0.08,
0.008,0.12,0.70,-1.77,-0.12,0.36,0.08,
0.008,0.12,0.70,-1.77,-0.18,0.37,0.08,
0.009,0.07,0.60,-1.42,-0.18,0.37,0.08,
0.009,0.07,0.60,-1.42,-0.23,0.38,0.08,
0.01,0.07,0.60,-1.42,-0.28,0.39,0.08,
0.015,-0.01,0.47,-1.12,-0.28,0.39,0.08,
0.016,-0.01,0.47,-1.12,-0.33,0.40,0.07,
0.016,-0.01,0.47,-1.12,-0.37,0.41,0.08,
0.016,-0.08,0.38,-0.95,-0.37,0.41,0.08,
0.017,-0.08,0.38,-0.95,-0.41,0.42,0.08,
0.018,-0.08,0.38,-0.95,-0.45,0.43,0.08,
0.032,-0.08,0.38,-0.95,-0.48,0.42,0.09,
0.033,-0.14,0.33,-0.82,-0.48,0.42,0.09,
0.033,-0.14,0.33,-0.82,-0.50,0.42,0.08,
0.034,-0.19,0.32,-0.81,-0.50,0.42,0.08,
0.034,-0.19,0.32,-0.81,-0.53,0.41,0.09,
0.035,-0.19,0.32,-0.81,-0.54,0.39,0.09,
0.035,-0.19,0.32,-0.81,-0.55,0.38,0.09,
0.036,-0.23,0.33,-0.84,-0.55,0.38,0.09,
0.036,-0.23,0.33,-0.84,-0.56,0.35,0.09,
0.037,-0.26,0.35,-0.82,-0.56,0.35,0.09,
0.037,-0.26,0.35,-0.82,-0.56,0.33,0.10,
0.038,-0.26,0.35,-0.82,-0.56,0.31,0.10,
0.049,-0.22,0.28,-0.66,-0.56,0.31,0.10,
0.05,-0.22,0.28,-0.66,-0.56,0.28,0.10,
0.05,-0.22,0.28,-0.66,-0.55,0.26,0.10,
0.051,-0.22,0.28,-0.66,-0.53,0.24,0.09,
0.052,-0.22,0.28,-0.66,-0.51,0.23,0.09,
0.052,-0.16,0.22,-0.41,-0.51,0.23,0.09,
0.053,-0.16,0.22,-0.41,-0.49,0.21,0.09,
0.053,-0.05,0.13,-0.04,-0.49,0.21,0.09,
0.064,-0.05,0.13,-0.04,-0.46,0.21,0.08,
0.065,0.07,0.05,0.24,-0.46,0.21,0.08,
0.065,0.07,0.05,0.24,-0.43,0.20,0.08,
0.065,0.07,0.05,0.24,-0.39,0.20,0.08,
0.066,0.16,-0.05,0.43,-0.39,0.20,0.08,
0.066,0.16,-0.05,0.43,-0.36,0.20,0.08,
0.066,0.16,-0.05,0.43,-0.32,0.21,0.07,
0.067,0.16,-0.05,0.43,-0.28,0.21,0.07,
0.067,0.20,-0.04,0.52,-0.28,0.21,0.07,
0.068,0.20,-0.04,0.52,-0.25,0.21,0.07,
0.072,0.20,-0.04,0.52,-0.21,0.21,0.07,
0.074,0.13,-0.04,0.45,-0.21,0.21,0.07,
0.076,0.13,-0.04,0.45,-0.17,0.20,0.07,
0.077,0.13,-0.04,0.45,-0.14,0.20,0.07,
0.077,0.05,-0.02,0.28,-0.14,0.20,0.07,
0.078,0.05,-0.02,0.28,-0.10,0.20,0.07,
0.081,-0.03,-0.01,0.16,-0.10,0.20,0.07,
0.082,-0.03,-0.01,0.16,-0.07,0.18,0.07,
0.083,-0.03,-0.01,0.16,-0.04,0.17,0.07,
0.086,-0.05,-0.01,0.06,-0.04,0.17,0.07,
0.087,-0.05,-0.01,0.06,-0.01,0.17,0.07,
0.09,-0.05,-0.01,0.06,0.01,0.16,0.07,
0.091,-0.09,0.06,-0.00,0.01,0.16,0.07,
0.092,-0.09,0.06,-0.00,0.03,0.15,0.07,
0.096,-0.09,0.06,-0.00,0.05,0.15,0.08,
0.097,-0.12,0.14,-0.08,0.05,0.15,0.08,
0.098,-0.12,0.14,-0.08,0.06,0.14,0.08,
0.099,-0.12,0.14,-0.08,0.07,0.13,0.08,
0.101,-0.12,0.14,-0.08,0.08,0.13,0.09,
0.101,-0.09,0.20,-0.20,0.08,0.13,0.09,
0.106,-0.09,0.20,-0.20,0.08,0.12,0.09,
0.108,0.01,0.29,-0.31,0.08,0.12,0.09,
0.108,0.01,0.29,-0.31,0.08,0.12,0.10,
0.108,0.01,0.29,-0.31,0.07,0.12,0.10,
0.11,0.01,0.29,-0.31,0.07,0.12,0.10,
0.111,0.05,0.37,-0.43,0.07,0.12,0.10,
0.114,0.05,0.37,-0.43,0.06,0.12,0.11,
0.117,0.12,0.41,-0.52,0.06,0.12,0.11,
0.117,0.12,0.41,-0.52,0.04,0.12,0.11,
0.119,0.12,0.41,-0.52,0.03,0.13,0.11,
0.121,0.17,0.48,-0.61,0.03,0.13,0.11,
0.122,0.17,0.48,-0.61,0.01,0.13,0.12,
0.124,0.17,0.48,-0.61,-0.01,0.14,0.12,
0.126,0.17,0.48,-0.61,-0.03,0.15,0.12,
0.128,0.19,0.53,-0.80,-0.03,0.15,0.12,
0.128,0.19,0.53,-0.80,-0.05,0.16,0.12,
0.131,0.18,0.60,-0.92,-0.05,0.16,0.12,
0.132,0.18,0.60,-0.92,-0.08,0.16,0.12,
0.133,0.18,0.60,-0.92,-0.10,0.17,0.12,
0.138,0.25,0.59,-0.94,-0.10,0.17,0.12,
0.139,0.25,0.59,-0.94,-0.13,0.18,0.13,
0.139,0.25,0.59,-0.94,-0.15,0.18,0.13,
0.142,0.26,0.57,-0.92,-0.15,0.18,0.13,
0.142,0.26,0.57,-0.92,-0.18,0.19,0.12,
0.143,0.26,0.57,-0.92,-0.20,0.19,0.12,
0.146,0.23,0.53,-0.78,-0.20,0.19,0.12,
0.147,0.23,0.53,-0.78,-0.23,0.20,0.12,
0.148,0.23,0.53,-0.78,-0.25,0.21,0.12,
0.151,0.23,0.48,-0.57,-0.25,0.21,0.12,
0.151,0.23,0.48,-0.57,-0.27,0.22,0.12,
0.153,0.23,0.48,-0.57,-0.29,0.23,0.12,
0.156,0.21,0.46,-0.48,-0.29,0.23,0.12,
0.178,0.21,0.46,-0.48,-0.31,0.24,0.12,
0.178,0.21,0.46,-0.48,-0.32,0.25,0.12,
0.179,0.18,0.43,-0.41,-0.32,0.25,0.12,
0.179,0.18,0.43,-0.41,-0.34,0.25,0.12,
0.18,0.18,0.43,-0.41,-0.35,0.26,0.12,
0.18,0.18,0.43,-0.41,-0.35,0.26,0.12,
0.181,0.11,0.39,-0.36,-0.35,0.26,0.12,
0.181,0.11,0.39,-0.36,-0.36,0.26,0.12,
0.182,0.12,0.41,-0.31,-0.36,0.26,0.12,
0.182,0.12,0.41,-0.31,-0.36,0.25,0.12,
0.183,0.12,0.41,-0.31,-0.36,0.25,0.12,
0.183,0.10,0.38,-0.09,-0.36,0.25,0.12,
0.184,0.10,0.38,-0.09,-0.36,0.25,0.12,
0.184,0.10,0.38,-0.09,-0.35,0.25,0.12,
0.185,0.08,0.35,0.00,-0.35,0.25,0.12,
0.185,0.08,0.35,0.00,-0.35,0.26,0.13,
0.186,0.08,0.35,0.00,-0.34,0.26,0.12,
0.186,0.08,0.35,0.00,-0.33,0.26,0.12,
0.187,0.12,0.30,0.01,-0.33,0.26,0.12,
0.197,0.12,0.30,0.01,-0.32,0.26,0.12,
0.198,0.12,0.29,0.00,-0.32,0.26,0.12,
0.199,0.12,0.29,0.00,-0.31,0.26,0.12,
0.199,0.12,0.29,0.00,-0.30,0.26,0.12,
0.199,0.12,0.29,0.00,-0.29,0.26,0.12,
0.2,0.15,0.28,-0.05,-0.29,0.26,0.12,
0.201,0.15,0.28,-0.05,-0.28,0.26,0.11,
0.201,0.15,0.23,-0.10,-0.28,0.26,0.11,
0.202,0.15,0.23,-0.10,-0.26,0.26,0.11,
0.205,0.15,0.23,-0.10,-0.25,0.26,0.11,
0.206,0.15,0.23,-0.10,-0.24,0.27,0.11,
0.206,0.13,0.15,-0.03,-0.24,0.27,0.11,
0.21,0.13,0.15,-0.03,-0.23,0.27,0.11,
0.211,0.13,0.15,-0.03,-0.23,0.28,0.11,
0.211,0.11,0.09,-0.04,-0.23,0.28,0.11,
0.212,0.11,0.09,-0.04,-0.22,0.29,0.11,
0.214,0.11,0.09,-0.04,-0.21,0.30,0.11,
0.215,0.04,0.03,-0.05,-0.21,0.30,0.11,
0.217,0.04,0.03,-0.05,-0.20,0.31,0.12,
0.224,0.02,0.00,-0.10,-0.20,0.31,0.12,
0.224,0.02,0.00,-0.10,-0.19,0.31,0.12,
0.225,0.02,0.00,-0.10,-0.19,0.32,0.12,
0.227,0.02,0.00,-0.10,-0.18,0.32,0.12,
0.228,0.00,0.05,-0.16,-0.18,0.32,0.12,
0.229,0.00,0.05,-0.16,-0.17,0.33,0.12,
0.229,0.00,0.05,-0.16,-0.17,0.32,0.13,
0.23,-0.08,0.06,-0.22,-0.17,0.32,0.13,
0.232,-0.08,0.06,-0.22,-0.16,0.32,0.13,
0.235,-0.12,0.09,-0.26,-0.16,0.32,0.13,
0.236,-0.12,0.09,-0.26,-0.15,0.31,0.13,
0.243,-0.12,0.09,-0.26,-0.14,0.30,0.12,
0.244,-0.12,0.09,-0.26,-0.14,0.30,0.13,
0.244,-0.09,0.15,-0.28,-0.14,0.30,0.13,
0.246,-0.09,0.15,-0.28,-0.13,0.29,0.12,
0.247,-0.10,0.23,-0.26,-0.13,0.29,0.12,
0.248,-0.10,0.23,-0.26,-0.12,0.28,0.12,
0.248,-0.10,0.23,-0.26,-0.11,0.27,0.12,
0.251,-0.10,0.23,-0.26,-0.10,0.27,0.12,
0.251,-0.09,0.28,-0.25,-0.10,0.27,0.12,
0.253,-0.09,0.28,-0.25,-0.09,0.26,0.12,
0.257,-0.05,0.37,-0.23,-0.09,0.26,0.12,
0.258,-0.05,0.37,-0.23,-0.08,0.25,0.12,
0.258,-0.05,0.37,-0.23,-0.07,0.24,0.11,
0.259,-0.05,0.37,-0.23,-0.06,0.23,0.11,
0.26,0.03,0.42,-0.25,-0.06,0.23,0.11,
0.262,0.03,0.42,-0.25,-0.06,0.23,0.11,
0.266,0.03,0.42,-0.25,-0.05,0.22,0.11,
0.266,0.08,0.45,-0.33,-0.05,0.22,0.11,
0.269,0.08,0.45,-0.33,-0.05,0.22,0.11,
0.272,0.08,0.45,-0.33,-0.04,0.22,0.10,
0.273,0.04,0.45,-0.45,-0.04,0.22,0.10,
0.273,0.04,0.45,-0.45,-0.04,0.21,0.10,
0.275,0.04,0.45,-0.45,-0.04,0.21,0.10,
0.275,0.08,0.45,-0.55,-0.04,0.21,0.10,
0.278,0.08,0.45,-0.55,-0.04,0.21,0.10,
0.28,0.08,0.38,-0.60,-0.04,0.21,0.10,
0.281,0.08,0.38,-0.60,-0.05,0.21,0.10,
0.282,0.08,0.38,-0.60,-0.06,0.22,0.10,
0.285,0.01,0.34,-0.75,-0.06,0.22,0.10,
0.285,0.01,0.34,-0.75,-0.06,0.22,0.10,
0.289,0.01,0.34,-0.75,-0.07,0.23,0.10,
0.29,0.04,0.36,-0.79,-0.07,0.23,0.10,
0.29,0.04,0.36,-0.79,-0.08,0.23,0.10,
0.292,0.04,0.36,-0.79,-0.09,0.24,0.11,
0.295,0.04,0.36,-0.79,-0.11,0.24,0.10,
0.295,0.06,0.33,-0.78,-0.11,0.24,0.10,
0.297,0.06,0.33,-0.78,-0.12,0.25,0.10,
0.299,0.06,0.33,-0.78,-0.13,0.25,0.10,
0.3,0.07,0.37,-0.78,-0.13,0.25,0.10,
0.302,0.07,0.37,-0.78,-0.14,0.26,0.10,
0.306,0.03,0.39,-0.77,-0.14,0.26,0.10,
0.306,0.03,0.39,-0.77,-0.16,0.26,0.10,
0.307,0.03,0.39,-0.77,-0.17,0.26,0.10,
0.31,0.03,0.39,-0.77,-0.18,0.26,0.10,
0.31,0.04,0.38,-0.84,-0.18,0.26,0.10,
0.312,0.04,0.38,-0.84,-0.19,0.25,0.10,
0.314,0.04,0.38,-0.84,-0.20,0.25,0.10,
0.315,0.01,0.35,-0.87,-0.20,0.25,0.10,
0.318,0.01,0.35,-0.87,-0.22,0.24,0.10,
0.319,0.01,0.35,-0.87,-0.22,0.23,0.10,
0.319,-0.04,0.31,-0.84,-0.22,0.23,0.10,
0.338,-0.04,0.31,-0.84,-0.24,0.22,0.10,
0.339,-0.13,0.29,-0.84,-0.24,0.22,0.10,
0.34,-0.13,0.29,-0.84,-0.25,0.22,0.10,
0.344,-0.13,0.29,-0.84,-0.25,0.21,0.09,
0.345,-0.13,0.29,-0.84,-0.26,0.20,0.10,
0.345,-0.15,0.28,-0.78,-0.26,0.20,0.10,
0.346,-0.15,0.28,-0.78,-0.27,0.19,0.10,
0.346,-0.15,0.28,-0.78,-0.27,0.19,0.10,
0.347,-0.19,0.23,-0.74,-0.27,0.19,0.10,
0.347,-0.19,0.23,-0.74,-0.27,0.17,0.09,
0.347,-0.21,0.19,-0.70,-0.27,0.17,0.09,
0.348,-0.21,0.19,-0.70,-0.28,0.16,0.10,
0.348,-0.21,0.19,-0.70,-0.28,0.15,0.10,
0.348,-0.23,0.19,-0.64,-0.28,0.15,0.10,
0.349,-0.23,0.19,-0.64,-0.28,0.14,0.10,
0.351,-0.23,0.19,-0.64,-0.28,0.13,0.10,
0.351,-0.25,0.18,-0.54,-0.28,0.13,0.10,
0.351,-0.25,0.18,-0.54,-0.28,0.12,0.10,
0.352,-0.25,0.18,-0.54,-0.28,0.11,0.10,
0.355,-0.25,0.18,-0.54,-0.27,0.10,0.10,
0.356,-0.23,0.18,-0.44,-0.27,0.10,0.10,
0.357,-0.23,0.18,-0.44,-0.26,0.09,0.10,
0.36,-0.23,0.17,-0.34,-0.26,0.09,0.10,
0.361,-0.23,0.17,-0.34,-0.26,0.08,0.10,
0.362,-0.23,0.17,-0.34,-0.25,0.07,0.10,
0.365,-0.23,0.17,-0.34,-0.24,0.06,0.10,
0.366,-0.21,0.19,-0.30,-0.24,0.06,0.10,
0.367,-0.21,0.19,-0.30,-0.23,0.05,0.10,
0.371,-0.18,0.20,-0.26,-0.23,0.05,0.10,
0.372,-0.18,0.20,-0.26,-0.22,0.04,0.09,
0.372,-0.18,0.20,-0.26,-0.22,0.03,0.09,
0.374,-0.18,0.20,-0.26,-0.21,0.03,0.09,
0.374,-0.15,0.19,-0.17,-0.21,0.03,0.09,
0.376,-0.15,0.19,-0.17,-0.20,0.02,0.08,
0.379,-0.12,0.17,-0.11,-0.20,0.02,0.08,
0.38,-0.12,0.17,-0.11,-0.19,0.01,0.09,
0.381,-0.12,0.17,-0.11,-0.19,0.01,0.08,
0.384,-0.12,0.17,-0.11,-0.18,0.01,0.08,
0.385,-0.02,0.17,-0.05,-0.18,0.01,0.08,
0.387,-0.02,0.17,-0.05,-0.17,0.01,0.07,
0.391,0.06,0.22,0.01,-0.17,0.01,0.07,
0.391,0.06,0.22,0.01,-0.17,0.01,0.07,
0.392,0.06,0.22,0.01,-0.17,0.00,0.06,
0.394,0.15,0.26,-0.06,-0.17,0.00,0.06,
0.395,0.15,0.26,-0.06,-0.16,0.00,0.06,
0.396,0.15,0.26,-0.06,-0.16,-0.00,0.05,
0.399,0.18,0.29,-0.12,-0.16,-0.00,0.05,
0.4,0.18,0.29,-0.12,-0.15,-0.00,0.04,
0.402,0.18,0.29,-0.12,-0.15,-0.01,0.03,
0.406,0.18,0.29,-0.12,-0.15,-0.01,0.02,
0.406,0.25,0.31,-0.05,-0.15,-0.01,0.02,
0.407,0.25,0.31,-0.05,-0.15,-0.00,0.01,
0.409,0.25,0.31,-0.05,-0.15,0.00,0.00,
0.409,0.32,0.33,0.04,-0.15,0.00,0.00,
0.414,0.32,0.33,0.04,-0.15,0.01,-0.01,
0.414,0.33,0.37,0.16,-0.15,0.01,-0.01,
0.414,0.33,0.37,0.16,-0.15,0.01,-0.02,
0.418,0.33,0.37,0.16,-0.14,0.02,-0.03,
0.419,0.33,0.37,0.16,-0.15,0.03,-0.04,
0.42,0.36,0.40,0.23,-0.15,0.03,-0.04,
0.423,0.36,0.40,0.23,-0.15,0.04,-0.05,
0.424,0.36,0.40,0.23,-0.14,0.04,-0.06,
0.425,0.41,0.38,0.24,-0.14,0.04,-0.06,
0.427,0.41,0.38,0.24,-0.14,0.05,-0.07,
0.429,0.37,0.38,0.26,-0.14,0.05,-0.07,
0.43,0.37,0.38,0.26,-0.14,0.06,-0.08,
0.431,0.37,0.38,0.26,-0.14,0.06,-0.09,
0.435,0.32,0.34,0.40,-0.14,0.06,-0.09,
0.435,0.32,0.34,0.40,-0.14,0.07,-0.10,
0.438,0.32,0.34,0.40,-0.14,0.08,-0.11,
0.439,0.32,0.27,0.40,-0.14,0.08,-0.11,
0.44,0.32,0.27,0.40,-0.13,0.08,-0.12,
0.442,0.32,0.27,0.40,-0.14,0.09,-0.13,
0.447,0.22,0.17,0.41,-0.14,0.09,-0.13,
0.447,0.22,0.17,0.41,-0.14,0.09,-0.14,
0.448,0.22,0.17,0.41,-0.13,0.09,-0.14,
0.449,0.22,0.17,0.41,-0.14,0.09,-0.15,
0.449,0.13,0.08,0.31,-0.14,0.09,-0.15,
0.451,0.13,0.08,0.31,-0.14,0.09,-0.16,
0.454,0.07,-0.03,0.15,-0.14,0.09,-0.16,
0.455,0.07,-0.03,0.15,-0.14,0.09,-0.16,
0.457,0.07,-0.03,0.15,-0.14,0.07,-0.16,
0.46,0.07,-0.03,0.15,-0.15,0.06,-0.17,
0.461,-0.03,-0.05,-0.11,-0.15,0.06,-0.17,
0.461,-0.03,-0.05,-0.11,-0.15,0.04,-0.17,
0.464,-0.03,-0.05,-0.11,-0.16,0.02,-0.17,
0.464,-0.12,-0.06,-0.32,-0.16,0.02,-0.17,
0.466,-0.12,-0.06,-0.32,-0.17,-0.01,-0.18,
0.469,-0.12,-0.06,-0.32,-0.17,-0.03,-0.18,
0.469,-0.19,-0.07,-0.36,-0.17,-0.03,-0.18,
0.471,-0.19,-0.07,-0.36,-0.18,-0.06,-0.18,
0.475,-0.23,-0.09,-0.18,-0.18,-0.06,-0.18,
0.475,-0.23,-0.09,-0.18,-0.19,-0.08,-0.19,
0.476,-0.23,-0.09,-0.18,-0.19,-0.09,-0.20,
0.479,-0.21,-0.19,0.29,-0.19,-0.09,-0.20,
0.479,-0.21,-0.19,0.29,-0.19,-0.10,-0.20,
0.481,-0.21,-0.19,0.29,-0.19,-0.11,-0.21,
0.484,-0.21,-0.19,0.29,-0.20,-0.10,-0.21,
0.484,-0.15,-0.29,0.69,-0.20,-0.10,-0.21,
0.491,-0.15,-0.29,0.69,-0.20,-0.10,-0.21,
0.514,-0.11,-0.39,1.00,-0.20,-0.10,-0.21,
0.514,-0.11,-0.39,1.00,-0.20,-0.08,-0.21,
0.515,-0.11,-0.39,1.00,-0.20,-0.07,-0.21,
0.515,-0.07,-0.50,1.09,-0.20,-0.07,-0.21,
0.516,-0.07,-0.50,1.09,-0.20,-0.06,-0.21,
0.516,-0.07,-0.50,1.09,-0.21,-0.04,-0.21,
0.516,-0.11,-0.58,0.97,-0.21,-0.04,-0.21,
0.517,-0.11,-0.58,0.97,-0.21,-0.03,-0.21,
0.517,-0.11,-0.58,0.97,-0.21,-0.02,-0.21,
0.518,-0.11,-0.58,0.97,-0.21,-0.02,-0.21,
0.518,-0.19,-0.56,0.62,-0.21,-0.02,-0.21,
0.519,-0.19,-0.56,0.62,-0.22,-0.03,-0.21,
0.519,-0.19,-0.56,0.62,-0.22,-0.05,-0.21,
0.52,-0.24,-0.54,0.16,-0.22,-0.05,-0.21,
0.52,-0.24,-0.54,0.16,-0.22,-0.06,-0.20,
0.521,-0.31,-0.50,-0.17,-0.22,-0.06,-0.20,
0.521,-0.31,-0.50,-0.17,-0.22,-0.08,-0.21,
0.522,-0.31,-0.50,-0.17,-0.22,-0.11,-0.21,
0.522,-0.31,-0.50,-0.17,-0.22,-0.13,-0.21,
0.523,-0.37,-0.45,-0.22,-0.22,-0.13,-0.21,
0.523,-0.37,-0.45,-0.22,-0.22,-0.16,-0.21,
0.529,-0.37,-0.45,-0.22,-0.21,-0.18,-0.21,
0.532,-0.32,-0.39,0.03,-0.21,-0.18,-0.21,
0.532,-0.32,-0.39,0.03,-0.20,-0.20,-0.21,
0.532,-0.22,-0.34,0.59,-0.20,-0.20,-0.21,
0.533,-0.22,-0.34,0.59,-0.19,-0.21,-0.21,
0.533,-0.22,-0.34,0.59,-0.17,-0.21,-0.22,
0.534,-0.04,-0.36,1.18,-0.17,-0.21,-0.22,
0.534,-0.04,-0.36,1.18,-0.15,-0.21,-0.22,
0.541,-0.04,-0.36,1.18,-0.13,-0.21,-0.23,
0.542,0.23,-0.31,1.85,-0.13,-0.21,-0.23,
0.542,0.23,-0.31,1.85,-0.09,-0.20,-0.23,
0.543,0.23,-0.31,1.85,-0.05,-0.19,-0.24,
0.543,0.23,-0.31,1.85,-0.02,-0.17,-0.25,
0.543,0.49,-0.25,2.36,-0.02,-0.17,-0.25,
0.546,0.49,-0.25,2.36,0.02,-0.15,-0.25,
0.549,0.79,-0.21,2.82,0.02,-0.15,-0.25,
0.55,0.79,-0.21,2.82,0.07,-0.13,-0.26,
0.552,0.79,-0.21,2.82,0.12,-0.11,-0.28,
0.557,0.79,-0.21,2.82,0.17,-0.08,-0.29,
0.557,1.06,-0.08,3.05,0.17,-0.08,-0.29,
0.558,1.06,-0.08,3.05,0.22,-0.06,-0.30,
0.559,1.27,0.03,2.99,0.22,-0.06,-0.30,
0.563,1.27,0.03,2.99,0.27,-0.04,-0.31,
0.563,1.27,0.03,2.99,0.31,-0.03,-0.32,
0.564,1.27,0.03,2.99,0.36,-0.02,-0.32,
0.564,1.32,0.16,2.58,0.36,-0.02,-0.32,
0.565,1.32,0.16,2.58,0.40,-0.01,-0.33,
0.568,1.32,0.16,2.58,0.44,-0.00,-0.34,
0.569,1.26,0.38,2.14,0.44,-0.00,-0.34,
0.572,1.26,0.38,2.14,0.48,0.00,-0.34,
0.573,1.12,0.53,1.79,0.48,0.00,-0.34,
0.574,1.12,0.53,1.79,0.50,0.01,-0.34,
0.576,1.12,0.53,1.79,0.53,0.02,-0.34,
0.578,1.12,0.53,1.79,0.55,0.02,-0.34,
0.578,1.02,0.65,1.42,0.55,0.02,-0.34,
0.581,1.02,0.65,1.42,0.56,0.03,-0.34,
0.583,1.02,0.65,1.42,0.57,0.04,-0.34,
0.584,0.88,0.79,1.14,0.57,0.04,-0.34,
0.586,0.88,0.79,1.14,0.56,0.06,-0.34,
0.589,0.80,0.89,0.88,0.56,0.06,-0.34,
0.591,0.80,0.89,0.88,0.55,0.07,-0.34,
0.592,0.80,0.89,0.88,0.54,0.09,-0.34,
0.593,0.80,0.89,0.88,0.52,0.11,-0.34,
0.594,0.73,1.02,0.69,0.52,0.11,-0.34,
0.597,0.73,1.02,0.69,0.50,0.12,-0.34,
0.599,0.65,1.17,0.40,0.50,0.12,-0.34,
0.599,0.65,1.17,0.40,0.46,0.14,-0.35,
0.602,0.65,1.17,0.40,0.42,0.16,-0.35,
0.604,0.58,1.28,0.11,0.42,0.16,-0.35,
0.605,0.58,1.28,0.11,0.37,0.17,-0.35,
0.608,0.58,1.28,0.11,0.32,0.19,-0.35,
0.609,0.55,1.39,-0.22,0.32,0.19,-0.35,
0.609,0.55,1.39,-0.22,0.26,0.20,-0.36,
0.611,0.55,1.39,-0.22,0.20,0.21,-0.36,
0.613,0.51,1.45,-0.50,0.20,0.21,-0.36,
0.613,0.51,1.45,-0.50,0.13,0.22,-0.37,
0.615,0.51,1.45,-0.50,0.05,0.23,-0.37,
0.618,0.47,1.47,-0.78,0.05,0.23,-0.37,
0.618,0.47,1.47,-0.78,-0.03,0.24,-0.38,
0.621,0.47,1.47,-0.78,-0.11,0.24,-0.38,
0.623,0.43,1.42,-1.00,-0.11,0.24,-0.38,
0.623,0.43,1.42,-1.00,-0.19,0.24,-0.38,
0.625,0.43,1.42,-1.00,-0.28,0.24,-0.39,
0.628,0.37,1.37,-1.10,-0.28,0.24,-0.39,
0.628,0.37,1.37,-1.10,-0.37,0.23,-0.38,
0.631,0.37,1.37,-1.10,-0.46,0.24,-0.38,
0.633,0.30,1.28,-1.09,-0.46,0.24,-0.38,
0.634,0.30,1.28,-1.09,-0.55,0.24,-0.39,
0.635,0.30,1.28,-1.09,-0.63,0.24,-0.38,
0.647,0.27,1.16,-0.93,-0.63,0.24,-0.38,
0.648,0.27,1.16,-0.93,-0.71,0.25,-0.38,
0.648,0.27,1.16,-0.93,-0.80,0.26,-0.38,
0.648,0.23,1.04,-0.67,-0.80,0.26,-0.38,
0.648,0.23,1.04,-0.67,-0.88,0.26,-0.38,
0.648,0.23,1.04,-0.67,-0.94,0.28,-0.38,
0.649,0.24,0.89,-0.44,-0.94,0.28,-0.38,
0.649,0.24,0.89,-0.44,-1.01,0.29,-0.38,
0.652,0.24,0.89,-0.44,-1.07,0.30,-0.37,
0.657,0.20,0.81,-0.15,-1.07,0.30,-0.37,
0.676,0.20,0.81,-0.15,-1.12,0.31,-0.37,
0.676,0.20,0.81,-0.15,-1.16,0.32,-0.37,
0.676,0.08,0.73,0.15,-1.16,0.32,-0.37,
0.677,0.08,0.73,0.15,-1.20,0.33,-0.37,
0.677,0.08,0.73,0.15,-1.23,0.34,-0.37,
0.677,-0.02,0.69,0.40,-1.23,0.34,-0.37,
0.677,-0.02,0.69,0.40,-1.26,0.35,-0.37,
0.678,-0.02,0.69,0.40,-1.27,0.36,-0.37,
0.678,-0.12,0.63,0.74,-1.27,0.36,-0.37,
0.678,-0.12,0.63,0.74,-1.28,0.36,-0.37,
0.678,-0.12,0.63,0.74,-1.28,0.37,-0.37,
0.679,-0.18,0.57,1.01,-1.28,0.37,-0.37,
0.679,-0.18,0.57,1.01,-1.27,0.37,-0.37,
0.679,-0.18,0.57,1.01,-1.26,0.37,-0.37,
0.679,-0.26,0.54,1.32,-1.26,0.37,-0.37,
0.68,-0.26,0.54,1.32,-1.24,0.38,-0.37,
0.682,-0.26,0.54,1.32,-1.21,0.38,-0.38,
0.683,-0.37,0.46,1.54,-1.21,0.38,-0.38,
0.684,-0.37,0.46,1.54,-1.18,0.37,-0.38,
0.685,-0.37,0.46,1.54,-1.14,0.37,-0.38,
0.688,-0.48,0.38,1.64,-1.14,0.37,-0.38,
0.691,-0.48,0.38,1.64,-1.10,0.36,-0.37,
0.692,-0.48,0.38,1.64,-1.06,0.34,-0.37,
0.693,-0.56,0.28,1.63,-1.06,0.34,-0.37,
0.693,-0.56,0.28,1.63,-1.01,0.33,-0.37,
0.695,-0.56,0.28,1.63,-0.97,0.30,-0.37,
0.698,-0.63,0.25,1.52,-0.97,0.30,-0.37,
0.698,-0.63,0.25,1.52,-0.92,0.28,-0.36,
0.7,-0.63,0.25,1.52,-0.86,0.25,-0.36,
0.704,-0.63,0.25,1.52,-0.81,0.23,-0.35,
0.704,-0.72,0.22,1.46,-0.81,0.23,-0.35,
0.705,-0.72,0.22,1.46,-0.75,0.20,-0.35,
0.708,-0.72,0.22,1.46,-0.70,0.17,-0.34,
0.709,-0.75,0.17,1.41,-0.70,0.17,-0.34,
0.709,-0.75,0.17,1.41,-0.65,0.15,-0.33,
0.713,-0.80,0.17,1.35,-0.65,0.15,-0.33,
0.714,-0.80,0.17,1.35,-0.60,0.13,-0.32,
0.716,-0.80,0.17,1.35,-0.55,0.11,-0.31,
0.717,-0.79,0.17,1.25,-0.55,0.11,-0.31,
0.717,-0.79,0.17,1.25,-0.51,0.10,-0.30,
0.722,-0.79,0.17,1.25,-0.47,0.10,-0.28,
0.723,-0.82,0.18,1.08,-0.47,0.10,-0.28,
0.723,-0.82,0.18,1.08,-0.43,0.09,-0.28,
0.725,-0.82,0.18,1.08,-0.40,0.09,-0.27,
0.728,-0.79,0.20,0.93,-0.40,0.09,-0.27,
0.728,-0.79,0.20,0.93,-0.37,0.10,-0.26,
0.73,-0.79,0.20,0.93,-0.34,0.10,-0.25,
0.733,-0.74,0.32,0.68,-0.34,0.10,-0.25,
0.733,-0.74,0.32,0.68,-0.32,0.11,-0.24,
0.735,-0.74,0.32,0.68,-0.30,0.12,-0.24,
0.739,-0.70,0.37,0.46,-0.30,0.12,-0.24,
0.742,-0.70,0.37,0.46,-0.29,0.14,-0.23,
0.742,-0.70,0.37,0.46,-0.29,0.15,-0.23,
0.743,-0.65,0.43,0.22,-0.29,0.15,-0.23,
0.744,-0.65,0.43,0.22,-0.28,0.16,-0.22,
0.745,-0.65,0.43,0.22,-0.29,0.17,-0.22,
0.748,-0.67,0.46,-0.05,-0.29,0.17,-0.22,
0.749,-0.67,0.46,-0.05,-0.30,0.18,-0.22,
0.751,-0.67,0.46,-0.05,-0.31,0.18,-0.22,
0.753,-0.65,0.50,-0.40,-0.31,0.18,-0.22,
0.753,-0.65,0.50,-0.40,-0.32,0.18,-0.22,
0.757,-0.65,0.50,-0.40,-0.35,0.18,-0.22,
0.758,-0.65,0.50,-0.40,-0.37,0.18,-0.22,
0.758,-0.70,0.56,-0.61,-0.37,0.18,-0.22,
0.762,-0.70,0.56,-0.61,-0.40,0.17,-0.21,
0.762,-0.73,0.64,-0.77,-0.40,0.17,-0.21,
0.763,-0.73,0.64,-0.77,-0.43,0.17,-0.21,
0.765,-0.73,0.64,-0.77,-0.46,0.17,-0.21,
0.767,-0.73,0.64,-0.87,-0.46,0.17,-0.21,
0.768,-0.73,0.64,-0.87,-0.50,0.16,-0.21,
0.772,-0.73,0.64,-0.87,-0.54,0.16,-0.21,
0.774,-0.73,0.65,-0.92,-0.54,0.16,-0.21,
0.775,-0.73,0.65,-0.92,-0.58,0.16,-0.21,
0.775,-0.73,0.65,-0.92,-0.61,0.16,-0.21,
0.778,-0.71,0.69,-0.94,-0.61,0.16,-0.21,
0.779,-0.71,0.69,-0.94,-0.65,0.16,-0.20,
0.78,-0.71,0.69,-0.94,-0.69,0.16,-0.20,
0.782,-0.71,0.69,-0.94,-0.73,0.16,-0.20,
0.783,-0.73,0.61,-0.94,-0.73,0.16,-0.20,
0.788,-0.73,0.61,-0.94,-0.76,0.16,-0.19,
0.789,-0.68,0.61,-0.91,-0.76,0.16,-0.19,
0.789,-0.68,0.61,-0.91,-0.80,0.17,-0.18,
0.79,-0.68,0.61,-0.91,-0.84,0.17,-0.18,
0.793,-0.64,0.60,-0.80,-0.84,0.17,-0.18,
0.794,-0.64,0.60,-0.80,-0.87,0.17,-0.18,
0.795,-0.64,0.60,-0.80,-0.89,0.17,-0.17,
0.797,-0.69,0.59,-0.67,-0.89,0.17,-0.17,
0.798,-0.69,0.59,-0.67,-0.91,0.17,-0.17,
0.8,-0.69,0.59,-0.67,-0.94,0.18,-0.16,
0.805,-0.70,0.57,-0.55,-0.94,0.18,-0.16,
0.806,-0.70,0.57,-0.55,-0.95,0.18,-0.16,
0.806,-0.70,0.57,-0.55,-0.97,0.17,-0.15,
0.808,-0.70,0.57,-0.55,-0.98,0.18,-0.14,
0.808,-0.71,0.57,-0.46,-0.98,0.18,-0.14,
0.811,-0.71,0.57,-0.46,-0.99,0.18,-0.13,
0.812,-0.74,0.55,-0.33,-0.99,0.18,-0.13,
0.817,-0.74,0.55,-0.33,-0.99,0.18,-0.13,
0.817,-0.74,0.55,-0.33,-0.99,0.18,-0.12,
0.818,-0.76,0.55,-0.19,-0.99,0.18,-0.12,
0.818,-0.76,0.55,-0.19,-0.98,0.19,-0.11,
0.84,-0.77,0.57,-0.06,-0.98,0.19,-0.11,
0.84,-0.77,0.57,-0.06,-0.98,0.19,-0.10,
0.841,-0.77,0.57,-0.06,-0.97,0.19,-0.10,
0.841,-0.77,0.57,-0.06,-0.96,0.19,-0.09,
0.841,-0.75,0.60,0.08,-0.96,0.19,-0.09,
0.842,-0.75,0.60,0.08,-0.94,0.20,-0.09,
0.842,-0.75,0.60,0.08,-0.93,0.20,-0.08,
0.843,-0.75,0.60,0.08,-0.91,0.20,-0.07,
0.843,-0.78,0.58,0.17,-0.91,0.20,-0.07,
0.844,-0.78,0.58,0.17,-0.89,0.21,-0.07,
0.844,-0.78,0.58,0.17,-0.87,0.21,-0.06,
0.845,-0.83,0.55,0.30,-0.87,0.21,-0.06,
0.845,-0.83,0.55,0.30,-0.84,0.21,-0.06,
0.846,-0.83,0.55,0.30,-0.82,0.21,-0.06,
0.846,-0.87,0.45,0.35,-0.82,0.21,-0.06,
0.847,-0.87,0.45,0.35,-0.80,0.21,-0.06,
0.847,-0.91,0.33,0.31,-0.80,0.21,-0.06,
0.847,-0.91,0.33,0.31,-0.78,0.20,-0.06,
0.85,-0.91,0.33,0.31,-0.77,0.20,-0.05,
0.853,-0.91,0.33,0.31,-0.75,0.19,-0.05,
0.854,-0.92,0.26,0.31,-0.75,0.19,-0.05,
0.855,-0.92,0.26,0.31,-0.74,0.18,-0.05,
0.859,-0.98,0.22,0.23,-0.74,0.18,-0.05,
0.86,-0.98,0.22,0.23,-0.72,0.17,-0.05,
0.86,-0.98,0.22,0.23,-0.71,0.17,-0.05,
0.863,-0.98,0.22,0.23,-0.70,0.16,-0.05,
0.863,-1.00,0.16,0.18,-0.70,0.16,-0.05,
0.865,-1.00,0.16,0.18,-0.69,0.15,-0.05,
0.867,-1.03,0.15,0.15,-0.69,0.15,-0.05,
0.867,-1.03,0.15,0.15,-0.68,0.14,-0.05,
0.869,-1.03,0.15,0.15,-0.67,0.13,-0.06,
0.875,-1.05,0.17,0.16,-0.67,0.13,-0.06,
0.876,-1.05,0.17,0.16,-0.66,0.11,-0.06,
0.877,-1.05,0.17,0.16,-0.65,0.10,-0.06,
0.877,-1.05,0.17,0.16,-0.64,0.10,-0.06,
0.877,-1.03,0.19,0.11,-0.64,0.10,-0.06,
0.88,-1.03,0.19,0.11,-0.63,0.08,-0.07,
0.882,-1.02,0.26,0.19,-0.63,0.08,-0.07,
0.882,-1.02,0.26,0.19,-0.62,0.07,-0.07,
0.885,-1.02,0.26,0.19,-0.61,0.06,-0.08,
0.888,-1.02,0.26,0.19,-0.60,0.04,-0.08,
0.888,-0.98,0.32,0.28,-0.60,0.04,-0.08,
0.889,-0.98,0.32,0.28,-0.59,0.03,-0.09,
0.892,-0.99,0.44,0.34,-0.59,0.03,-0.09,
0.893,-0.99,0.44,0.34,-0.57,0.02,-0.10,
0.894,-0.99,0.44,0.34,-0.55,0.01,-0.10,
0.897,-0.96,0.47,0.43,-0.55,0.01,-0.10,
0.898,-0.96,0.47,0.43,-0.54,-0.00,-0.11,
0.899,-0.96,0.47,0.43,-0.53,-0.02,-0.12,
0.902,-0.94,0.53,0.50,-0.53,-0.02,-0.12,
0.902,-0.94,0.53,0.50,-0.51,-0.03,-0.12,
0.905,-0.94,0.53,0.50,-0.49,-0.05,-0.13,
0.908,-0.93,0.56,0.50,-0.49,-0.05,-0.13,
0.909,-0.93,0.56,0.50,-0.48,-0.06,-0.14,
0.91,-0.93,0.56,0.50,-0.46,-0.08,-0.14,
0.912,-0.93,0.58,0.41,-0.46,-0.08,-0.14,
0.912,-0.93,0.58,0.41,-0.45,-0.09,-0.15,
0.914,-0.93,0.58,0.41,-0.43,-0.11,-0.14,
0.917,-0.90,0.64,0.39,-0.43,-0.11,-0.14,
0.917,-0.90,0.64,0.39,-0.42,-0.12,-0.15,
0.919,-0.90,0.64,0.39,-0.41,-0.14,-0.15,
0.923,-0.81,0.63,0.37,-0.41,-0.14,-0.15,
0.924,-0.81,0.63,0.37,-0.40,-0.16,-0.15,
0.925,-0.81,0.63,0.37,-0.39,-0.18,-0.15,
0.926,-0.64,0.62,0.35,-0.39,-0.18,-0.15,
0.927,-0.64,0.62,0.35,-0.38,-0.20,-0.14,
0.928,-0.64,0.62,0.35,-0.37,-0.21,-0.14,
0.933,-0.45,0.58,0.43,-0.37,-0.21,-0.14,
0.933,-0.45,0.58,0.43,-0.37,-0.23,-0.13,
0.933,-0.45,0.58,0.43,-0.37,-0.24,-0.12,
0.937,-0.45,0.58,0.43,-0.36,-0.24,-0.12,
0.937,-0.22,0.58,0.55,-0.36,-0.24,-0.12,
0.939,-0.22,0.58,0.55,-0.36,-0.24,-0.11,
0.944,0.04,0.61,0.64,-0.36,-0.24,-0.11,
0.944,0.04,0.61,0.64,-0.36,-0.24,-0.10,
0.944,0.04,0.61,0.64,-0.37,-0.23,-0.09,
0.947,0.30,0.71,0.73,-0.37,-0.23,-0.09,
0.947,0.30,0.71,0.73,-0.37,-0.21,-0.08,
0.95,0.30,0.71,0.73,-0.37,-0.19,-0.07,
0.951,0.58,0.88,0.72,-0.37,-0.19,-0.07,
0.951,0.58,0.88,0.72,-0.37,-0.17,-0.06,
0.955,0.58,0.88,0.72,-0.38,-0.14,-0.05,
0.958,0.58,0.88,0.72,-0.39,-0.11,-0.05,
0.958,0.86,1.04,0.66,-0.39,-0.11,-0.05,
0.959,0.86,1.04,0.66,-0.39,-0.08,-0.04,
0.962,0.86,1.04,0.66,-0.40,-0.04,-0.04,
0.962,1.05,1.17,0.68,-0.40,-0.04,-0.04,
0.964,1.05,1.17,0.68,-0.40,-0.01,-0.04,
0.966,1.17,1.28,0.69,-0.40,-0.01,-0.04,
0.966,1.17,1.28,0.69,-0.41,0.03,-0.04,
0.969,1.17,1.28,0.69,-0.42,0.07,-0.04,
0.975,1.17,1.28,0.69,-0.43,0.11,-0.04,
0.976,1.21,1.37,0.57,-0.43,0.11,-0.04,
0.976,1.21,1.37,0.57,-0.44,0.16,-0.04,
0.977,1.17,1.44,0.42,-0.44,0.16,-0.04,
0.978,1.17,1.44,0.42,-0.46,0.20,-0.05,
0.979,1.17,1.44,0.42,-0.47,0.22,-0.05,
0.982,1.05,1.55,0.15,-0.47,0.22,-0.05,
0.983,1.05,1.55,0.15,-0.48,0.25,-0.06,
0.984,1.05,1.55,0.15,-0.49,0.27,-0.07,
1.008,1.05,1.55,0.15,-0.51,0.28,-0.08,
1.009,0.92,1.62,-0.08,-0.51,0.28,-0.08,
1.009,0.92,1.62,-0.08,-0.52,0.29,-0.09,
1.01,0.71,1.68,-0.22,-0.52,0.29,-0.09,
1.01,0.71,1.68,-0.22,-0.53,0.29,-0.11,
1.011,0.71,1.68,-0.22,-0.54,0.28,-0.12,
1.011,0.52,1.67,-0.22,-0.54,0.28,-0.12,
1.011,0.52,1.67,-0.22,-0.55,0.26,-0.13,
1.012,0.52,1.67,-0.22,-0.56,0.24,-0.15,
1.012,0.52,1.67,-0.22,-0.56,0.22,-0.17,
1.012,0.30,1.65,-0.10,-0.56,0.22,-0.17,
1.013,0.30,1.65,-0.10,-0.57,0.20,-0.18,
1.013,0.30,1.65,-0.10,-0.57,0.17,-0.20,
1.014,0.07,1.51,0.15,-0.57,0.17,-0.20,
1.014,0.07,1.51,0.15,-0.57,0.14,-0.21,
1.014,-0.11,1.39,0.43,-0.57,0.14,-0.21,
1.015,-0.11,1.39,0.43,-0.57,0.11,-0.22,
1.015,-0.11,1.39,0.43,-0.57,0.08,-0.23,
1.018,-0.23,1.23,0.74,-0.57,0.08,-0.23,
1.019,-0.23,1.23,0.74,-0.56,0.05,-0.23,
1.019,-0.23,1.23,0.74,-0.55,0.02,-0.24,
1.023,-0.30,1.08,1.06,-0.55,0.02,-0.24,
1.024,-0.30,1.08,1.06,-0.54,-0.00,-0.24,
1.024,-0.30,1.08,1.06,-0.53,-0.03,-0.24,
1.026,-0.28,1.02,1.34,-0.53,-0.03,-0.24,
1.027,-0.28,1.02,1.34,-0.52,-0.05,-0.24,
1.028,-0.28,1.02,1.34,-0.50,-0.07,-0.24,
1.032,-0.24,0.94,1.59,-0.50,-0.07,-0.24,
1.032,-0.24,0.94,1.59,-0.49,-0.09,-0.23,
1.033,-0.24,0.94,1.59,-0.47,-0.11,-0.23,
1.036,-0.11,0.89,1.76,-0.47,-0.11,-0.23,
1.036,-0.11,0.89,1.76,-0.45,-0.12,-0.22,
1.04,-0.11,0.89,1.76,-0.43,-0.13,-0.22,
1.041,0.03,0.91,1.90,-0.43,-0.13,-0.22,
1.042,0.03,0.91,1.90,-0.41,-0.13,-0.22,
1.043,0.03,0.91,1.90,-0.39,-0.14,-0.21,
1.046,0.12,0.87,1.92,-0.39,-0.14,-0.21,
1.046,0.12,0.87,1.92,-0.37,-0.14,-0.20,
1.048,0.12,0.87,1.92,-0.36,-0.13,-0.19,
1.051,0.21,0.85,1.78,-0.36,-0.13,-0.19,
1.051,0.21,0.85,1.78,-0.35,-0.13,-0.18,
1.054,0.21,0.85,1.78,-0.33,-0.12,-0.18,
1.056,0.28,0.86,1.50,-0.33,-0.12,-0.18,
1.057,0.28,0.86,1.50,-0.33,-0.11,-0.17,
1.058,0.28,0.86,1.50,-0.32,-0.10,-0.16,
1.061,0.30,0.92,1.28,-0.32,-0.10,-0.16,
1.061,0.30,0.92,1.28,-0.32,-0.08,-0.15,
1.063,0.30,0.92,1.28,-0.32,-0.06,-0.14,
1.066,0.33,0.96,1.12,-0.32,-0.06,-0.14,
1.067,0.33,0.96,1.12,-0.32,-0.04,-0.14,
1.069,0.33,0.96,1.12,-0.32,-0.02,-0.12,
1.075,0.37,0.98,1.00,-0.32,-0.02,-0.12,
1.075,0.37,0.98,1.00,-0.32,0.01,-0.11,
1.075,0.37,0.98,1.00,-0.33,0.04,-0.11,
1.076,0.34,0.96,0.86,-0.33,0.04,-0.11,
1.076,0.34,0.96,0.86,-0.34,0.06,-0.10,
1.078,0.34,0.96,0.86,-0.34,0.08,-0.10,
1.081,0.34,0.96,0.86,-0.35,0.10,-0.10,
1.081,0.32,1.06,0.71,-0.35,0.10,-0.10,
1.083,0.32,1.06,0.71,-0.35,0.11,-0.09,
1.086,0.32,1.06,0.71,-0.36,0.12,-0.10,
1.088,0.24,1.20,0.66,-0.36,0.12,-0.10,
1.088,0.24,1.20,0.66,-0.35,0.12,-0.10,
1.091,0.18,1.34,0.85,-0.35,0.12,-0.10,
1.093,0.18,1.34,0.85,-0.35,0.12,-0.10,
1.093,0.18,1.34,0.85,-0.34,0.12,-0.11,
1.096,0.13,1.42,1.26,-0.34,0.12,-0.11,
1.096,0.13,1.42,1.26,-0.33,0.12,-0.12,
1.098,0.13,1.42,1.26,-0.32,0.12,-0.13,
1.101,0.13,1.46,1.64,-0.32,0.12,-0.13,
1.102,0.13,1.46,1.64,-0.30,0.12,-0.14,
1.105,0.13,1.46,1.64,-0.28,0.12,-0.16,
1.106,0.03,1.44,2.07,-0.28,0.12,-0.16,
1.106,0.03,1.44,2.07,-0.26,0.12,-0.17,
1.108,0.03,1.44,2.07,-0.23,0.12,-0.18,
1.112,0.05,1.25,2.48,-0.23,0.12,-0.18,
1.117,0.21,0.81,2.85,-0.23,0.12,-0.18,
1.118,0.21,0.81,2.85,-0.21,0.13,-0.20,
1.118,0.21,0.81,2.85,-0.18,0.14,-0.20,
1.118,0.21,0.81,2.85,-0.16,0.14,-0.21,
1.118,0.21,0.81,2.85,-0.14,0.14,-0.22,
1.133,0.21,0.81,2.85,-0.13,0.13,-0.22,
1.134,0.74,-0.02,2.89,-0.13,0.13,-0.22,
1.134,0.74,-0.02,2.89,-0.13,0.11,-0.22,
1.134,1.48,-1.21,1.94,-0.13,0.11,-0.22,
1.135,1.48,-1.21,1.94,-0.14,0.07,-0.21,
1.135,1.48,-1.21,1.94,-0.17,0.01,-0.20,
1.135,2.19,-2.39,0.23,-0.17,0.01,-0.20,
1.136,2.19,-2.39,0.23,-0.21,-0.07,-0.18,
1.136,2.19,-2.39,0.23,-0.26,-0.16,-0.15,
1.136,2.90,-3.01,-1.46,-0.26,-0.16,-0.15,
1.136,2.90,-3.01,-1.46,-0.32,-0.27,-0.12,
1.143,2.90,-3.01,-1.46,-0.38,-0.37,-0.08,
1.147,3.54,-3.01,-2.69,-0.38,-0.37,-0.08,
1.148,3.54,-3.01,-2.69,-0.45,-0.46,-0.04,
1.148,3.54,-3.01,-2.69,-0.50,-0.55,0.00,
1.149,4.15,-2.66,-3.33,-0.50,-0.55,0.00,
1.151,4.15,-2.66,-3.33,-0.55,-0.61,0.04,
1.151,4.72,-2.25,-2.78,-0.55,-0.61,0.04,
1.152,4.72,-2.25,-2.78,-0.59,-0.64,0.08,
1.183,4.72,-2.25,-2.78,-0.62,-0.64,0.11,
1.184,5.09,-2.11,-1.10,-0.62,-0.64,0.11,
1.184,5.09,-2.11,-1.10,-0.64,-0.58,0.15,
1.185,5.09,-2.11,-1.10,-0.64,-0.46,0.18,
1.186,5.09,-2.11,-1.10,-0.64,-0.29,0.21,
1.186,5.09,-2.11,-1.10,-0.62,-0.05,0.24,
1.187,5.21,-2.26,1.23,-0.62,-0.05,0.24,
1.188,5.21,-2.26,1.23,-0.60,0.24,0.27,
1.188,5.19,-2.38,3.10,-0.60,0.24,0.27,
1.189,5.19,-2.38,3.10,-0.56,0.57,0.29,
1.189,5.19,-2.38,3.10,-0.52,0.91,0.31,
1.19,5.19,-2.38,3.10,-0.47,1.24,0.31,
1.192,5.00,-2.27,3.79,-0.47,1.24,0.31,
1.193,5.00,-2.27,3.79,-0.41,1.56,0.30,
1.193,5.00,-2.27,3.79,-0.34,1.84,0.29,
1.193,4.55,-1.80,3.43,-0.34,1.84,0.29,
1.194,4.55,-1.80,3.43,-0.27,2.07,0.26,
1.194,3.70,-1.23,2.41,-0.27,2.07,0.26,
1.194,3.70,-1.23,2.41,-0.19,2.24,0.23,
1.195,3.70,-1.23,2.41,-0.10,2.34,0.20,
1.195,2.34,-0.82,1.26,-0.10,2.34,0.20,
1.195,2.34,-0.82,1.26,-0.01,2.36,0.15,
1.196,2.34,-0.82,1.26,0.08,2.29,0.11,
1.196,0.58,-0.64,0.63,0.08,2.29,0.11,
1.196,0.58,-0.64,0.63,0.18,2.17,0.07,
1.196,0.58,-0.64,0.63,0.28,2.01,0.04,
1.197,-1.23,-0.77,1.06,0.28,2.01,0.04,
1.197,-1.23,-0.77,1.06,0.38,1.81,0.00,
1.198,-1.23,-0.77,1.06,0.48,1.60,-0.02,
1.201,-2.82,-0.99,1.93,0.48,1.60,-0.02,
1.203,-2.82,-0.99,1.93,0.58,1.39,-0.04,
1.203,-2.82,-0.99,1.93,0.69,1.19,-0.05,
1.208,-2.82,-0.99,1.93,0.79,1.00,-0.06,
1.209,-3.96,-1.12,2.73,0.79,1.00,-0.06,
1.21,-3.96,-1.12,2.73,0.88,0.81,-0.06,
1.21,-4.77,-1.12,2.91,0.88,0.81,-0.06,
1.21,-4.77,-1.12,2.91,0.97,0.64,-0.07,
1.212,-4.77,-1.12,2.91,1.05,0.47,-0.08,
1.215,-5.14,-0.95,2.42,1.05,0.47,-0.08,
1.216,-5.14,-0.95,2.42,1.12,0.32,-0.08,
1.218,-5.14,-0.95,2.42,1.17,0.18,-0.08,
1.225,-5.14,-0.95,2.42,1.21,0.05,-0.09,
1.225,-5.14,-0.95,2.42,1.23,-0.08,-0.09,
1.226,-5.14,-0.64,1.39,1.23,-0.08,-0.09,
1.227,-5.04,-0.39,0.01,1.23,-0.08,-0.09,
1.228,-5.04,-0.39,0.01,1.24,-0.20,-0.11,
1.229,-5.04,-0.39,0.01,1.23,-0.32,-0.12,
1.23,-4.81,-0.24,-1.42,1.23,-0.32,-0.12,
1.231,-4.81,-0.24,-1.42,1.21,-0.42,-0.13,
1.232,-4.81,-0.24,-1.42,1.17,-0.53,-0.14,
1.236,-4.43,-0.28,-2.59,1.17,-0.53,-0.14,
1.236,-4.43,-0.28,-2.59,1.11,-0.62,-0.15,
1.24,-4.43,-0.28,-2.59,1.04,-0.69,-0.14,
1.242,-3.86,-0.50,-3.23,1.04,-0.69,-0.14,
1.242,-3.86,-0.50,-3.23,0.96,-0.74,-0.14,
1.243,-3.86,-0.50,-3.23,0.87,-0.78,-0.13,
1.246,-3.18,-0.85,-3.73,0.87,-0.78,-0.13,
1.246,-3.18,-0.85,-3.73,0.78,-0.81,-0.11,
1.248,-3.18,-0.85,-3.73,0.67,-0.82,-0.09,
1.251,-2.47,-1.23,-4.30,0.67,-0.82,-0.09,
1.251,-2.47,-1.23,-4.30,0.55,-0.82,-0.06,
1.253,-2.47,-1.23,-4.30,0.44,-0.83,-0.02,
1.258,-2.47,-1.23,-4.30,0.31,-0.83,0.02,
1.258,-1.67,-1.53,-5.13,0.31,-0.83,0.02,
1.258,-1.67,-1.53,-5.13,0.19,-0.83,0.06,
1.261,-0.78,-1.79,-5.69,0.19,-0.83,0.06,
1.261,-0.78,-1.79,-5.69,0.07,-0.83,0.11,
1.262,-0.78,-1.79,-5.69,-0.05,-0.83,0.17,
1.266,0.19,-2.02,-5.62,-0.05,-0.83,0.17,
1.266,0.19,-2.02,-5.62,-0.17,-0.82,0.22,
1.267,0.19,-2.02,-5.62,-0.28,-0.80,0.28,
1.271,0.19,-2.02,-5.62,-0.38,-0.77,0.33,
1.271,1.24,-2.07,-5.13,-0.38,-0.77,0.33,
1.273,1.24,-2.07,-5.13,-0.47,-0.72,0.38,
1.275,2.24,-2.00,-4.48,-0.47,-0.72,0.38,
1.275,2.24,-2.00,-4.48,-0.56,-0.67,0.43,
1.277,2.24,-2.00,-4.48,-0.62,-0.60,0.47,
1.28,3.13,-1.73,-3.67,-0.62,-0.60,0.47,
1.281,3.13,-1.73,-3.67,-0.68,-0.51,0.50,
1.282,3.13,-1.73,-3.67,-0.72,-0.41,0.52,
1.285,3.66,-1.28,-2.77,-0.72,-0.41,0.52,
1.285,3.66,-1.28,-2.77,-0.75,-0.30,0.54,
1.288,3.66,-1.28,-2.77,-0.77,-0.18,0.55,
1.29,3.81,-0.84,-1.76,-0.77,-0.18,0.55,
1.292,3.81,-0.84,-1.76,-0.77,-0.05,0.55,
1.295,3.81,-0.84,-1.76,-0.76,0.08,0.55,
1.296,3.57,-0.46,-0.83,-0.76,0.08,0.55,
1.297,3.57,-0.46,-0.83,-0.73,0.22,0.54,
1.298,3.57,-0.46,-0.83,-0.70,0.36,0.52,
1.3,3.11,-0.26,0.05,-0.70,0.36,0.52,
1.3,3.11,-0.26,0.05,-0.66,0.49,0.51,
1.302,3.11,-0.26,0.05,-0.61,0.61,0.48,
1.306,2.38,-0.21,0.56,-0.61,0.61,0.48,
1.306,2.38,-0.21,0.56,-0.56,0.70,0.45,
1.309,2.38,-0.21,0.56,-0.50,0.77,0.42,
1.309,2.38,-0.21,0.56,-0.45,0.81,0.38,
1.31,1.49,-0.17,0.69,-0.45,0.81,0.38,
1.314,1.49,-0.17,0.69,-0.39,0.81,0.35,
1.315,0.57,-0.18,0.46,-0.39,0.81,0.35,
1.317,0.57,-0.18,0.46,-0.33,0.78,0.31,
1.349,0.57,-0.18,0.46,-0.28,0.73,0.27,
1.35,-0.34,-0.19,0.13,-0.28,0.73,0.27,
1.351,-0.34,-0.19,0.13,-0.23,0.65,0.23,
1.352,-0.34,-0.19,0.13,-0.18,0.54,0.20,
1.353,-1.18,-0.25,-0.10,-0.18,0.54,0.20,
1.353,-1.18,-0.25,-0.10,-0.13,0.42,0.16,
1.354,-1.18,-0.25,-0.10,-0.09,0.28,0.12,
1.355,-1.87,-0.28,-0.23,-0.09,0.28,0.12,
1.356,-1.87,-0.28,-0.23,-0.06,0.15,0.09,
1.357,-1.87,-0.28,-0.23,-0.02,0.02,0.05,
1.357,-2.25,-0.32,-0.24,-0.02,0.02,0.05,
1.358,-2.25,-0.32,-0.24,0.01,-0.11,0.02,
1.358,-2.25,-0.32,-0.24,0.03,-0.23,-0.01,
1.359,-2.41,-0.37,-0.32,0.03,-0.23,-0.01,
1.359,-2.41,-0.37,-0.32,0.05,-0.34,-0.04,
1.359,-2.41,-0.37,-0.32,0.06,-0.44,-0.06,
1.36,-2.29,-0.42,-0.57,0.06,-0.44,-0.06,
1.36,-2.29,-0.42,-0.57,0.07,-0.53,-0.09,
1.36,-2.29,-0.42,-0.57,0.07,-0.60,-0.11,
1.361,-2.00,-0.47,-0.95,0.07,-0.60,-0.11,
1.361,-2.00,-0.47,-0.95,0.06,-0.67,-0.13,
1.361,-2.00,-0.47,-0.95,0.06,-0.73,-0.14,
1.362,-1.58,-0.46,-1.32,0.06,-0.73,-0.14,
1.362,-1.58,-0.46,-1.32,0.04,-0.78,-0.16,
1.362,-1.58,-0.46,-1.32,0.02,-0.81,-0.18,
1.363,-1.06,-0.42,-1.39,0.02,-0.81,-0.18,
1.363,-1.06,-0.42,-1.39,-0.00,-0.84,-0.19,
1.363,-1.06,-0.42,-1.39,-0.03,-0.85,-0.20,
1.365,-0.49,-0.40,-1.35,-0.03,-0.85,-0.20,
1.368,-0.49,-0.40,-1.35,-0.05,-0.85,-0.21,
1.368,-0.49,-0.40,-1.35,-0.07,-0.85,-0.21,
1.369,-0.05,-0.40,-1.33,-0.07,-0.85,-0.21,
1.37,-0.05,-0.40,-1.33,-0.10,-0.83,-0.22,
1.374,-0.05,-0.40,-1.33,-0.13,-0.81,-0.22,
1.375,-0.05,-0.40,-1.33,-0.15,-0.79,-0.22,
1.375,0.33,-0.43,-1.28,-0.15,-0.79,-0.22,
1.377,0.33,-0.43,-1.28,-0.17,-0.76,-0.22,
1.379,0.57,-0.46,-1.28,-0.17,-0.76,-0.22,
1.38,0.57,-0.46,-1.28,-0.20,-0.73,-0.21,
1.382,0.57,-0.46,-1.28,-0.22,-0.69,-0.20,
1.384,0.66,-0.53,-1.33,-0.22,-0.69,-0.20,
1.385,0.66,-0.53,-1.33,-0.24,-0.66,-0.19,
1.4,0.66,-0.53,-1.33,-0.26,-0.63,-0.18,
1.401,0.62,-0.60,-1.28,-0.26,-0.63,-0.18,
1.401,0.62,-0.60,-1.28,-0.28,-0.60,-0.16,
1.402,0.62,-0.60,-1.28,-0.29,-0.56,-0.13,
1.402,0.49,-0.71,-1.23,-0.29,-0.56,-0.13,
1.403,0.49,-0.71,-1.23,-0.30,-0.53,-0.11,
1.403,0.49,-0.71,-1.23,-0.31,-0.50,-0.09,
1.404,0.23,-0.78,-1.12,-0.31,-0.50,-0.09,
1.404,0.23,-0.78,-1.12,-0.32,-0.46,-0.05,
1.404,0.23,-0.78,-1.12,-0.32,-0.43,-0.02,
1.405,-0.08,-0.87,-0.91,-0.32,-0.43,-0.02,
1.405,-0.08,-0.87,-0.91,-0.33,-0.40,0.01,
1.408,-0.08,-0.87,-0.91,-0.33,-0.36,0.05,
1.412,-0.37,-0.98,-0.66,-0.33,-0.36,0.05,
1.413,-0.37,-0.98,-0.66,-0.33,-0.32,0.08,
1.414,-0.37,-0.98,-0.66,-0.32,-0.28,0.12,
1.415,-0.37,-0.98,-0.66,-0.31,-0.24,0.15,
1.415,-0.61,-1.04,-0.42,-0.31,-0.24,0.15,
1.417,-0.61,-1.04,-0.42,-0.30,-0.20,0.18,
1.419,-0.86,-1.05,-0.17,-0.30,-0.20,0.18,
1.419,-0.86,-1.05,-0.17,-0.30,-0.17,0.21,
1.422,-0.86,-1.05,-0.17,-0.29,-0.13,0.24,
1.425,-1.04,-1.02,0.00,-0.29,-0.13,0.24,
1.425,-1.04,-1.02,0.00,-0.27,-0.10,0.27,
1.428,-1.04,-1.02,0.00,-0.26,-0.06,0.29,
1.429,-1.04,-1.02,0.00,-0.25,-0.04,0.32,
1.429,-1.19,-1.03,0.01,-0.25,-0.04,0.32,
1.432,-1.19,-1.03,0.01,-0.24,-0.03,0.34,
1.435,-1.33,-1.01,-0.14,-0.24,-0.03,0.34,
1.435,-1.33,-1.01,-0.14,-0.23,-0.02,0.36,
1.439,-1.33,-1.01,-0.14,-0.21,-0.02,0.37,
1.44,-1.41,-1.06,-0.22,-0.21,-0.02,0.37,
1.44,-1.41,-1.06,-0.22,-0.21,-0.02,0.38,
1.444,-1.41,-1.06,-0.22,-0.19,-0.03,0.39,
1.445,-1.41,-1.06,-0.22,-0.18,-0.03,0.40,
1.446,-1.47,-1.05,-0.11,-0.18,-0.03,0.40,
1.447,-1.47,-1.05,-0.11,-0.17,-0.05,0.41,
1.451,-1.48,-0.98,-0.18,-0.17,-0.05,0.41,
1.451,-1.48,-0.98,-0.18,-0.16,-0.06,0.41,
1.452,-1.48,-0.98,-0.18,-0.15,-0.08,0.41,
1.456,-1.41,-0.92,-0.36,-0.15,-0.08,0.41,
1.457,-1.41,-0.92,-0.36,-0.14,-0.11,0.41,
1.458,-1.41,-0.92,-0.36,-0.13,-0.14,0.40,
1.461,-1.41,-0.92,-0.36,-0.11,-0.16,0.39,
1.462,-1.30,-0.83,-0.54,-0.11,-0.16,0.39,
1.462,-1.30,-0.83,-0.54,-0.10,-0.19,0.38,
1.464,-1.10,-0.68,-0.47,-0.10,-0.19,0.38,
1.465,-1.10,-0.68,-0.47,-0.09,-0.21,0.37,
1.466,-1.10,-0.68,-0.47,-0.07,-0.24,0.36,
1.469,-0.85,-0.54,-0.17,-0.07,-0.24,0.36,
1.469,-0.85,-0.54,-0.17,-0.06,-0.25,0.34,
1.473,-0.85,-0.54,-0.17,-0.04,-0.26,0.33,
1.475,-0.58,-0.44,0.16,-0.04,-0.26,0.33,
1.475,-0.58,-0.44,0.16,-0.02,-0.26,0.31,
1.477,-0.58,-0.44,0.16,-0.00,-0.27,0.29,
1.479,-0.58,-0.44,0.16,0.03,-0.27,0.27,
1.479,-0.25,-0.29,0.23,0.03,-0.27,0.27,
1.481,-0.25,-0.29,0.23,0.05,-0.26,0.24,
1.501,-0.25,-0.29,0.23,0.07,-0.26,0.22,
1.502,-0.06,-0.05,0.09,0.07,-0.26,0.22,
1.502,-0.06,-0.05,0.09,0.10,-0.27,0.20,
1.502,-0.01,0.12,-0.11,0.10,-0.27,0.20,
1.503,-0.01,0.12,-0.11,0.12,-0.27,0.18,
1.503,-0.01,0.12,-0.11,0.14,-0.28,0.17,
1.504,-0.01,0.12,-0.11,0.16,-0.28,0.15,
1.504,0.09,0.24,-0.21,0.16,-0.28,0.15,
1.504,0.09,0.24,-0.21,0.18,-0.28,0.13,
1.505,0.13,0.30,-0.16,0.18,-0.28,0.13,
1.505,0.13,0.30,-0.16,0.20,-0.28,0.11,
1.505,0.13,0.30,-0.16,0.22,-0.27,0.10,
1.506,0.06,0.36,-0.16,0.22,-0.27,0.10,
1.506,0.06,0.36,-0.16,0.24,-0.27,0.10,
1.506,0.06,0.36,-0.16,0.25,-0.27,0.10,
1.509,0.01,0.41,-0.34,0.25,-0.27,0.10,
1.51,0.01,0.41,-0.34,0.26,-0.26,0.10,
1.511,0.01,0.41,-0.34,0.27,-0.25,0.10,
1.514,-0.15,0.41,-0.48,0.27,-0.25,0.10,
1.515,-0.15,0.41,-0.48,0.28,-0.25,0.11,
1.516,-0.15,0.41,-0.48,0.29,-0.25,0.12,
1.519,-0.25,0.46,-0.69,0.29,-0.25,0.12,
1.519,-0.25,0.46,-0.69,0.29,-0.25,0.14,
1.523,-0.25,0.46,-0.69,0.29,-0.25,0.15,
1.524,-0.38,0.55,-0.82,0.29,-0.25,0.15,
1.525,-0.38,0.55,-0.82,0.29,-0.25,0.17,
1.526,-0.38,0.55,-0.82,0.29,-0.25,0.19,
1.529,-0.51,0.64,-0.95,0.29,-0.25,0.19,
1.529,-0.51,0.64,-0.95,0.28,-0.24,0.22,
1.532,-0.51,0.64,-0.95,0.27,-0.24,0.24,
1.534,-0.51,0.72,-1.03,0.27,-0.24,0.24,
1.535,-0.51,0.72,-1.03,0.26,-0.24,0.26,
1.537,-0.51,0.72,-1.03,0.25,-0.24,0.29,
1.539,-0.51,0.72,-1.03,0.24,-0.23,0.31,
1.539,-0.44,0.79,-1.05,0.24,-0.23,0.31,
1.541,-0.44,0.79,-1.05,0.23,-0.22,0.33,
1.544,-0.29,0.87,-0.99,0.23,-0.22,0.33,
1.544,-0.29,0.87,-0.99,0.21,-0.21,0.36,
1.545,-0.29,0.87,-0.99,0.20,-0.19,0.38,
1.548,-0.10,0.98,-0.81,0.20,-0.19,0.38,
1.548,-0.10,0.98,-0.81,0.20,-0.18,0.39,
1.551,-0.10,0.98,-0.81,0.18,-0.16,0.41,
1.556,0.09,1.10,-1.07,0.18,-0.16,0.41,
1.557,0.09,1.10,-1.07,0.17,-0.15,0.42,
1.557,0.09,1.10,-1.07,0.16,-0.14,0.42,
1.559,0.09,1.10,-1.07,0.14,-0.13,0.42,
1.559,0.15,1.19,-1.32,0.14,-0.13,0.42,
1.561,0.15,1.19,-1.32,0.13,-0.12,0.43,
1.564,0.20,1.23,-1.29,0.13,-0.12,0.43,
1.566,0.20,1.23,-1.29,0.10,-0.11,0.43,
1.567,0.20,1.23,-1.29,0.08,-0.09,0.43,
1.576,0.20,1.23,-1.29,0.07,-0.08,0.43,
1.577,0.20,1.23,-1.29,0.05,-0.06,0.42,
1.577,0.20,1.23,-1.29,0.03,-0.03,0.41,
1.578,0.28,1.25,-1.28,0.03,-0.03,0.41,
1.578,0.41,1.28,-1.08,0.03,-0.03,0.41,
1.579,0.41,1.28,-1.08,0.01,0.00,0.41,
1.579,0.46,1.27,-0.94,0.01,0.00,0.41,
1.579,0.46,1.27,-0.94,-0.01,0.04,0.40,
1.581,0.46,1.27,-0.94,-0.03,0.08,0.39,
1.583,0.52,1.31,-0.91,-0.03,0.08,0.39,
1.583,0.52,1.31,-0.91,-0.04,0.11,0.38,
1.586,0.52,1.31,-0.91,-0.06,0.14,0.37,
1.595,0.52,1.31,-0.91,-0.07,0.17,0.36,
1.596,0.54,1.30,-1.04,-0.07,0.17,0.36,
1.597,0.54,1.30,-1.04,-0.08,0.19,0.34,
1.598,0.54,1.30,-1.04,-0.09,0.22,0.32,
1.598,0.53,1.32,-1.09,-0.09,0.22,0.32,
1.599,0.53,1.32,-1.09,-0.09,0.23,0.31,
1.599,0.49,1.26,-1.03,-0.09,0.23,0.31,
1.599,0.49,1.26,-1.03,-0.10,0.25,0.30,
1.601,0.49,1.26,-1.03,-0.10,0.26,0.28,
1.608,0.47,1.22,-0.88,-0.10,0.26,0.28,
1.608,0.47,1.22,-0.88,-0.10,0.27,0.27,
1.609,0.47,1.22,-0.88,-0.10,0.28,0.25,
1.609,0.39,1.15,-0.91,-0.10,0.28,0.25,
1.609,0.39,1.15,-0.91,-0.09,0.28,0.24,
1.613,0.39,1.15,-0.91,-0.09,0.28,0.22,
1.613,0.30,1.18,-1.10,-0.09,0.28,0.22,
1.614,0.30,1.18,-1.10,-0.07,0.27,0.21,
1.616,0.30,1.18,-1.10,-0.06,0.26,0.20,
1.618,0.18,1.16,-1.02,-0.06,0.26,0.20,
1.619,0.18,1.16,-1.02,-0.05,0.25,0.19,
1.622,0.18,1.16,-1.02,-0.02,0.23,0.18,
1.624,0.06,1.11,-0.83,-0.02,0.23,0.18,
1.624,0.06,1.11,-0.83,-0.00,0.22,0.17,
1.626,0.06,1.11,-0.83,0.02,0.20,0.16,
1.629,-0.05,1.08,-0.71,0.02,0.20,0.16,
1.629,-0.05,1.08,-0.71,0.05,0.18,0.15,
1.631,-0.05,1.08,-0.71,0.08,0.16,0.15,
1.634,-0.13,1.07,-0.67,0.08,0.16,0.15,
1.636,-0.13,1.07,-0.67,0.11,0.14,0.14,
1.637,-0.13,1.07,-0.67,0.14,0.12,0.14,
1.638,-0.13,1.07,-0.67,0.17,0.09,0.13,
1.639,-0.22,1.04,-0.70,0.17,0.09,0.13,
1.645,-0.22,1.04,-0.70,0.20,0.06,0.13,
1.646,-0.36,1.02,-0.78,0.20,0.06,0.13,
1.646,-0.36,1.02,-0.78,0.22,0.03,0.13,
1.647,-0.36,1.02,-0.78,0.25,0.01,0.13,
1.648,-0.39,0.95,-0.69,0.25,0.01,0.13,
1.67,-0.39,0.95,-0.69,0.28,-0.02,0.13,
1.67,-0.39,0.95,-0.69,0.30,-0.04,0.13,
1.671,-0.39,0.95,-0.69,0.32,-0.05,0.14,
1.671,-0.37,0.92,-0.53,0.32,-0.05,0.14,
1.672,-0.37,0.92,-0.53,0.34,-0.06,0.14,
1.672,-0.38,0.88,-0.60,0.34,-0.06,0.14,
1.672,-0.38,0.88,-0.60,0.35,-0.07,0.15,
1.673,-0.38,0.88,-0.60,0.36,-0.08,0.15,
1.673,-0.35,0.94,-0.84,0.36,-0.08,0.15,
1.673,-0.35,0.94,-0.84,0.37,-0.09,0.15,
1.674,-0.35,0.94,-0.84,0.38,-0.10,0.16,
1.674,-0.27,1.05,-1.28,0.38,-0.10,0.16,
1.674,-0.27,1.05,-1.28,0.38,-0.11,0.16,
1.675,-0.27,1.05,-1.28,0.37,-0.13,0.16,
1.675,-0.14,1.18,-1.72,0.37,-0.13,0.16,
1.676,-0.14,1.18,-1.72,0.36,-0.15,0.16,
1.676,-0.14,1.18,-1.72,0.35,-0.16,0.16,
1.679,0.04,1.37,-2.06,0.35,-0.16,0.16,
1.682,0.04,1.37,-2.06,0.33,-0.18,0.16,
1.683,0.04,1.37,-2.06,0.32,-0.19,0.16,
1.683,0.30,1.45,-2.05,0.32,-0.19,0.16,
1.684,0.30,1.45,-2.05,0.30,-0.19,0.15,
1.686,0.30,1.45,-2.05,0.27,-0.18,0.14,
1.689,0.65,1.47,-1.78,0.27,-0.18,0.14,
1.691,0.65,1.47,-1.78,0.25,-0.17,0.13,
1.692,0.65,1.47,-1.78,0.23,-0.14,0.13,
1.693,1.06,1.44,-1.42,0.23,-0.14,0.13,
1.693,1.06,1.44,-1.42,0.20,-0.11,0.12,
1.696,1.06,1.44,-1.42,0.17,-0.07,0.11,
1.698,1.43,1.39,-1.23,0.17,-0.07,0.11,
1.698,1.43,1.39,-1.23,0.14,-0.02,0.10,
1.7,1.43,1.39,-1.23,0.11,0.02,0.09,
1.705,1.74,1.28,-1.27,0.11,0.02,0.09,
1.707,1.74,1.28,-1.27,0.08,0.06,0.09,
1.708,1.74,1.28,-1.27,0.05,0.10,0.08,
1.708,2.02,1.18,-1.45,0.05,0.10,0.08,
1.709,2.02,1.18,-1.45,0.02,0.13,0.08,
1.71,2.02,1.18,-1.45,-0.02,0.16,0.07,
1.713,2.20,1.08,-1.58,-0.02,0.16,0.07,
1.713,2.20,1.08,-1.58,-0.04,0.19,0.07,
1.715,2.20,1.08,-1.58,-0.07,0.22,0.07,
1.718,2.41,0.99,-1.66,-0.07,0.22,0.07,
1.718,2.41,0.99,-1.66,-0.09,0.23,0.07,
1.722,2.41,0.99,-1.66,-0.11,0.24,0.07,
1.724,2.52,0.95,-1.63,-0.11,0.24,0.07,
1.725,2.52,0.95,-1.63,-0.13,0.25,0.08,
1.725,2.52,0.95,-1.63,-0.13,0.26,0.08,
1.729,2.51,0.97,-1.42,-0.13,0.26,0.08,
1.729,2.51,0.97,-1.42,-0.13,0.26,0.09,
1.729,2.51,0.97,-1.42,-0.13,0.26,0.09,
1.733,2.41,1.07,-1.14,-0.13,0.26,0.09,
1.734,2.41,1.07,-1.14,-0.11,0.26,0.10,
1.736,2.41,1.07,-1.14,-0.08,0.26,0.10,
1.738,2.22,1.15,-0.68,-0.08,0.26,0.10,
1.738,2.22,1.15,-0.68,-0.05,0.26,0.11,
1.74,2.22,1.15,-0.68,-0.01,0.26,0.11,
1.744,1.93,1.30,-0.02,-0.01,0.26,0.11,
1.745,1.93,1.30,-0.02,0.04,0.26,0.12,
1.745,1.93,1.30,-0.02,0.10,0.25,0.13,
1.748,1.38,1.43,0.55,0.10,0.25,0.13,
1.749,1.38,1.43,0.55,0.16,0.22,0.13,
1.751,1.38,1.43,0.55,0.23,0.18,0.14,
1.753,0.74,1.24,1.16,0.23,0.18,0.14,
1.754,0.74,1.24,1.16,0.30,0.14,0.15,
1.755,0.74,1.24,1.16,0.37,0.08,0.15,
1.766,0.26,0.85,2.21,0.37,0.08,0.15,
1.767,0.26,0.85,2.21,0.45,0.03,0.16,
1.767,0.26,0.85,2.21,0.53,-0.02,0.17,
1.767,0.05,0.50,3.35,0.53,-0.02,0.17,
1.768,0.05,0.50,3.35,0.61,-0.06,0.17,
1.768,0.05,0.50,3.35,0.69,-0.11,0.17,
1.768,0.04,0.51,3.77,0.69,-0.11,0.17,
1.769,0.04,0.51,3.77,0.78,-0.16,0.17,
1.779,0.04,0.51,3.77,0.85,-0.21,0.16,
1.78,0.10,1.04,2.82,0.85,-0.21,0.16,
1.78,0.10,1.04,2.82,0.92,-0.29,0.14,
1.78,0.10,1.04,2.82,0.99,-0.39,0.11,
1.781,0.17,2.01,1.08,0.99,-0.39,0.11,
1.781,0.17,2.01,1.08,1.05,-0.50,0.08,
1.782,0.17,2.01,1.08,1.10,-0.62,0.03,
1.782,0.19,2.98,-0.31,1.10,-0.62,0.03,
1.782,0.19,2.98,-0.31,1.14,-0.73,-0.02,
1.785,0.19,2.98,-0.31,1.17,-0.85,-0.08,
1.789,0.08,3.50,-0.95,1.17,-0.85,-0.08,
1.789,0.08,3.50,-0.95,1.19,-0.95,-0.14,
1.79,0.08,3.50,-0.95,1.21,-1.03,-0.20,
1.793,0.03,3.59,-0.96,1.21,-1.03,-0.20,
1.793,0.03,3.59,-0.96,1.21,-1.09,-0.25,
1.795,0.03,3.59,-0.96,1.20,-1.13,-0.30,
1.798,0.03,3.59,-0.96,1.17,-1.14,-0.34,
1.799,0.07,3.42,-0.68,1.17,-1.14,-0.34,
1.8,0.07,3.42,-0.68,1.14,-1.14,-0.38,
1.802,0.26,3.08,-0.54,1.14,-1.14,-0.38,
1.803,0.26,3.08,-0.54,1.09,-1.11,-0.41,
1.806,0.26,3.08,-0.54,1.02,-1.06,-0.43,
1.807,0.60,2.59,-0.90,1.02,-1.06,-0.43,
1.808,0.60,2.59,-0.90,0.95,-1.00,-0.45,
1.809,0.60,2.59,-0.90,0.85,-0.94,-0.47,
1.813,0.88,2.05,-1.96,0.85,-0.94,-0.47,
1.813,0.88,2.05,-1.96,0.74,-0.88,-0.47,
1.835,0.88,2.05,-1.96,0.61,-0.82,-0.47,
1.835,1.07,1.51,-3.62,0.61,-0.82,-0.47,
1.835,1.07,1.51,-3.62,0.47,-0.78,-0.47,
1.836,1.07,1.51,-3.62,0.31,-0.75,-0.46,
1.836,1.15,0.98,-5.56,0.31,-0.75,-0.46,
1.837,1.15,0.98,-5.56,0.13,-0.73,-0.45,
1.837,1.15,0.98,-5.56,-0.06,-0.72,-0.44,
1.838,1.22,0.57,-7.34,-0.06,-0.72,-0.44,
1.838,1.22,0.57,-7.34,-0.26,-0.74,-0.43,
1.839,1.22,0.57,-7.34,-0.46,-0.75,-0.42,
1.839,1.26,0.21,-8.75,-0.46,-0.75,-0.42,
1.84,1.26,0.21,-8.75,-0.68,-0.78,-0.40,
1.84,1.26,0.21,-8.75,-0.90,-0.81,-0.39,
1.841,1.36,-0.14,-9.47,-0.90,-0.81,-0.39,
1.841,1.36,-0.14,-9.47,-1.12,-0.85,-0.38,
1.842,1.36,-0.14,-9.47,-1.35,-0.87,-0.37,
1.842,1.49,-0.50,-9.51,-1.35,-0.87,-0.37,
1.843,1.49,-0.50,-9.51,-1.58,-0.89,-0.36,
1.847,1.49,-0.50,-9.51,-1.80,-0.89,-0.36,
1.849,1.49,-0.50,-9.51,-2.01,-0.88,-0.35,
1.849,1.56,-1.05,-8.94,-2.01,-0.88,-0.35,
1.85,1.56,-1.05,-8.94,-2.22,-0.86,-0.35,
1.852,1.58,-1.67,-7.77,-2.22,-0.86,-0.35,
1.853,1.58,-1.67,-7.77,-2.42,-0.83,-0.34,
1.855,1.58,-1.67,-7.77,-2.61,-0.77,-0.34,
1.857,1.62,-2.40,-6.39,-2.61,-0.77,-0.34,
1.857,1.62,-2.40,-6.39,-2.79,-0.70,-0.34,
1.86,1.62,-2.40,-6.39,-2.95,-0.62,-0.34,
1.862,1.58,-3.21,-4.82,-2.95,-0.62,-0.34,
1.862,1.58,-3.21,-4.82,-3.10,-0.51,-0.34,
1.864,1.58,-3.21,-4.82,-3.24,-0.40,-0.34,
1.867,1.57,-4.07,-3.20,-3.24,-0.40,-0.34,
1.867,1.57,-4.07,-3.20,-3.36,-0.28,-0.35,
1.869,1.57,-4.07,-3.20,-3.47,-0.15,-0.35,
1.874,1.50,-4.95,-1.72,-3.47,-0.15,-0.35,
1.875,1.50,-4.95,-1.72,-3.56,-0.01,-0.35,
1.876,1.50,-4.95,-1.72,-3.64,0.11,-0.35,
1.877,1.31,-5.68,-0.77,-3.64,0.11,-0.35,
1.878,1.31,-5.68,-0.77,-3.70,0.23,-0.36,
1.879,1.31,-5.68,-0.77,-3.74,0.33,-0.36,
1.882,1.03,-6.30,0.00,-3.74,0.33,-0.36,
1.883,1.03,-6.30,0.00,-3.76,0.42,-0.37,
1.885,1.03,-6.30,0.00,-3.77,0.50,-0.37,
1.887,0.76,-6.76,1.02,-3.77,0.50,-0.37,
1.889,0.76,-6.76,1.02,-3.76,0.57,-0.38,
1.893,0.76,-6.76,1.02,-3.72,0.64,-0.39,
1.895,0.76,-6.76,1.02,-3.66,0.71,-0.41,
1.896,0.52,-7.02,2.42,-3.66,0.71,-0.41,
1.897,0.52,-7.02,2.42,-3.58,0.77,-0.41,
1.898,0.52,-7.02,2.42,-3.47,0.83,-0.43,
1.9,0.22,-7.09,3.77,-3.47,0.83,-0.43,
1.91,0.22,-7.09,3.77,-3.34,0.88,-0.45,
1.911,0.22,-7.09,3.77,-3.18,0.91,-0.46,
1.912,-0.13,-7.04,5.17,-3.18,0.91,-0.46,
1.913,-0.13,-7.04,5.17,-2.99,0.94,-0.48,
1.914,-0.13,-7.04,5.17,-2.78,0.94,-0.50,
1.915,-0.42,-6.81,6.43,-2.78,0.94,-0.50,
1.916,-0.42,-6.81,6.43,-2.54,0.92,-0.52,
1.916,-0.42,-6.81,6.43,-2.29,0.88,-0.54,
1.916,-0.42,-6.81,6.43,-2.00,0.81,-0.57,
1.918,-0.62,-6.46,7.48,-2.00,0.81,-0.57,
1.924,-0.70,-6.05,8.41,-2.00,0.81,-0.57,
1.925,-0.70,-6.05,8.41,-1.70,0.72,-0.59,
1.925,-0.70,-6.05,8.41,-1.38,0.60,-0.62,
1.925,-0.70,-6.05,8.41,-1.04,0.45,-0.65,
1.926,-0.63,-5.59,9.03,-1.04,0.45,-0.65,
1.927,-0.63,-5.59,9.03,-0.69,0.28,-0.69,
1.927,-0.63,-5.59,9.03,-0.33,0.11,-0.73,
1.931,-0.37,-4.99,9.43,-0.33,0.11,-0.73,
1.932,-0.37,-4.99,9.43,0.04,-0.07,-0.78,
1.932,-0.37,-4.99,9.43,0.41,-0.24,-0.83,
1.932,0.09,-4.41,9.71,0.41,-0.24,-0.83,
1.935,0.09,-4.41,9.71,0.79,-0.40,-0.88,
1.939,0.09,-4.41,9.71,1.17,-0.54,-0.93,
1.94,0.79,-3.87,10.01,1.17,-0.54,-0.93,
1.943,0.79,-3.87,10.01,1.54,-0.66,-1.00,
1.943,0.79,-3.87,10.01,1.90,-0.76,-1.06,
1.943,1.60,-3.42,9.84,1.90,-0.76,-1.06,
1.944,1.60,-3.42,9.84,2.25,-0.84,-1.13,
1.946,1.60,-3.42,9.84,2.58,-0.91,-1.20,
1.947,2.38,-3.07,8.99,2.58,-0.91,-1.20,
1.949,2.38,-3.07,8.99,2.90,-0.98,-1.27,
1.951,2.38,-3.07,8.99,3.20,-1.04,-1.34,
1.951,2.97,-2.88,7.68,3.20,-1.04,-1.34,
1.955,2.97,-2.88,7.68,3.47,-1.10,-1.40,
1.956,2.97,-2.88,7.68,3.73,-1.14,-1.47,
1.957,3.35,-2.81,6.49,3.73,-1.14,-1.47,
1.959,3.35,-2.81,6.49,3.96,-1.18,-1.52,
1.961,3.35,-2.81,6.49,4.17,-1.21,-1.57,
1.962,3.57,-2.81,5.41,4.17,-1.21,-1.57,
1.964,3.57,-2.81,5.41,4.36,-1.23,-1.61,
1.966,3.57,-2.81,5.41,4.52,-1.23,-1.65,
1.966,3.68,-2.85,4.40,4.52,-1.23,-1.65,
1.969,3.68,-2.85,4.40,4.66,-1.22,-1.68,
1.973,3.68,-2.85,4.40,4.78,-1.19,-1.71,
1.973,3.59,-2.76,3.54,4.78,-1.19,-1.71,
1.975,3.59,-2.76,3.54,4.87,-1.14,-1.72,
1.978,3.59,-2.76,3.54,4.93,-1.08,-1.72,
1.979,3.36,-2.58,2.77,4.93,-1.08,-1.72,
1.979,3.36,-2.58,2.77,4.97,-0.99,-1.72,
1.993,2.97,-2.37,2.05,4.97,-0.99,-1.72,
1.993,2.97,-2.37,2.05,4.99,-0.88,-1.71,
1.993,2.97,-2.37,2.05,4.99,-0.75,-1.69,
1.994,2.97,-2.37,2.05,4.96,-0.61,-1.66,
1.994,2.40,-2.10,1.14,4.96,-0.61,-1.66,
1.994,2.40,-2.10,1.14,4.90,-0.46,-1.62,
1.995,2.40,-2.10,1.14,4.82,-0.30,-1.57,
1.995,1.80,-1.78,0.04,4.82,-0.30,-1.57,
1.995,1.80,-1.78,0.04,4.72,-0.13,-1.51,
1.997,1.80,-1.78,0.04,4.60,0.06,-1.44,
2.001,1.18,-1.37,-0.87,4.60,0.06,-1.44,
2.002,1.18,-1.37,-0.87,4.45,0.25,-1.37,
2.002,1.18,-1.37,-0.87,4.29,0.46,-1.29,
2.003,0.65,-0.96,-1.34,4.29,0.46,-1.29,
2.005,0.65,-0.96,-1.34,4.12,0.69,-1.20,
2.007,0.65,-0.96,-1.34,3.93,0.91,-1.11,
2.007,0.32,-0.51,-1.68,3.93,0.91,-1.11,
2.008,0.32,-0.51,-1.68,3.72,1.13,-1.03,
2.012,0.32,-0.51,-1.68,3.49,1.34,-0.95,
2.012,0.15,0.06,-2.61,3.49,1.34,-0.95,
2.014,0.15,0.06,-2.61,3.25,1.54,-0.86,
2.017,0.15,0.06,-2.61,3.00,1.72,-0.79,
2.017,0.12,0.54,-3.06,3.00,1.72,-0.79,
2.018,0.12,0.54,-3.06,2.74,1.89,-0.72,
2.025,0.12,0.54,-3.06,2.46,2.03,-0.66,
2.026,0.16,1.14,-3.65,2.46,2.03,-0.66,
2.026,0.16,1.14,-3.65,2.17,2.15,-0.61,
2.026,0.16,1.14,-3.65,1.87,2.23,-0.57,
2.026,-0.00,1.72,-5.14,1.87,2.23,-0.57,
2.03,-0.00,1.72,-5.14,1.56,2.27,-0.53,
2.032,-0.00,1.72,-5.14,1.23,2.28,-0.50,
2.032,-0.43,2.29,-6.90,1.23,2.28,-0.50,
2.033,-0.43,2.29,-6.90,0.90,2.25,-0.48,
2.036,-0.43,2.29,-6.90,0.56,2.18,-0.47,
2.036,-1.04,2.86,-8.80,0.56,2.18,-0.47,
2.038,-1.04,2.86,-8.80,0.21,2.09,-0.46,
2.041,-1.04,2.86,-8.80,-0.13,1.98,-0.47,
2.042,-1.69,3.34,-10.18,-0.13,1.98,-0.47,
2.043,-1.69,3.34,-10.18,-0.48,1.86,-0.47,
2.046,-1.69,3.34,-10.18,-0.83,1.72,-0.48,
2.046,-2.36,3.61,-10.93,-0.83,1.72,-0.48,
2.048,-2.36,3.61,-10.93,-1.17,1.59,-0.49,
2.051,-2.36,3.61,-10.93,-1.51,1.48,-0.51,
2.051,-3.04,3.46,-10.57,-1.51,1.48,-0.51,
2.057,-3.04,3.46,-10.57,-1.83,1.38,-0.52,
2.057,-3.54,3.03,-9.36,-1.83,1.38,-0.52,
2.058,-3.54,3.03,-9.36,-2.13,1.30,-0.53,
2.058,-3.54,3.03,-9.36,-2.42,1.24,-0.53,
2.063,-3.86,2.45,-7.41,-2.42,1.24,-0.53,
2.064,-3.86,2.45,-7.41,-2.69,1.19,-0.53,
2.065,-3.86,2.45,-7.41,-2.94,1.18,-0.53,
2.066,-4.00,1.76,-5.43,-2.94,1.18,-0.53,
2.067,-4.00,1.76,-5.43,-3.17,1.18,-0.52,
2.068,-4.00,1.76,-5.43,-3.39,1.21,-0.50,
2.072,-4.05,1.04,-3.69,-3.39,1.21,-0.50,
2.073,-4.05,1.04,-3.69,-3.58,1.25,-0.49,
2.074,-4.05,1.04,-3.69,-3.75,1.30,-0.46,
2.076,-4.08,0.33,-2.48,-3.75,1.30,-0.46,
2.077,-4.08,0.33,-2.48,-3.90,1.35,-0.44,
2.078,-4.08,0.33,-2.48,-4.04,1.39,-0.41,
2.081,-4.20,-0.24,-2.05,-4.04,1.39,-0.41,
2.081,-4.20,-0.24,-2.05,-4.15,1.42,-0.38,
2.083,-4.20,-0.24,-2.05,-4.25,1.45,-0.34,
2.085,-4.20,-0.24,-2.05,-4.32,1.45,-0.31,
2.086,-4.29,-0.75,-1.85,-4.32,1.45,-0.31,
2.089,-4.29,-0.75,-1.85,-4.39,1.43,-0.28,
2.091,-4.29,-0.75,-1.85,-4.43,1.39,-0.24,
2.092,-4.35,-1.29,-1.86,-4.43,1.39,-0.24,
2.093,-4.35,-1.29,-1.86,-4.45,1.34,-0.19,
2.095,-4.35,-1.29,-1.86,-4.46,1.27,-0.15,
2.096,-4.43,-1.75,-1.62,-4.46,1.27,-0.15,
2.098,-4.43,-1.75,-1.62,-4.44,1.18,-0.10,
2.101,-4.43,-1.75,-1.62,-4.41,1.09,-0.05,
2.105,-4.45,-2.21,-1.16,-4.41,1.09,-0.05,
2.106,-4.45,-2.21,-1.16,-4.37,1.00,-0.00,
2.107,-4.45,-2.21,-1.16,-4.30,0.91,0.05,
2.107,-4.46,-2.63,-0.26,-4.30,0.91,0.05,
2.109,-4.46,-2.63,-0.26,-4.22,0.82,0.11,
2.111,-4.46,-2.63,-0.26,-4.12,0.75,0.16,
2.111,-4.37,-2.94,0.86,-4.12,0.75,0.16,
2.113,-4.37,-2.94,0.86,-4.00,0.68,0.21,
2.116,-4.37,-2.94,0.86,-3.87,0.61,0.26,
2.116,-4.22,-3.23,2.04,-3.87,0.61,0.26,
2.118,-4.22,-3.23,2.04,-3.72,0.56,0.32,
2.122,-4.22,-3.23,2.04,-3.56,0.51,0.36,
2.122,-4.00,-3.40,3.09,-3.56,0.51,0.36,
2.123,-4.00,-3.40,3.09,-3.38,0.47,0.41,
2.126,-4.00,-3.40,3.09,-3.19,0.43,0.46,
2.126,-3.69,-3.43,3.90,-3.19,0.43,0.46,
2.128,-3.69,-3.43,3.90,-2.99,0.40,0.49,
2.135,-3.69,-3.43,3.90,-2.78,0.37,0.53,
2.135,-3.69,-3.43,3.90,-2.56,0.34,0.56,
2.136,-3.33,-3.40,4.41,-2.56,0.34,0.56,
2.136,-3.33,-3.40,4.41,-2.33,0.30,0.58,
2.136,-2.94,-3.34,4.69,-2.33,0.30,0.58,
2.139,-2.94,-3.34,4.69,-2.10,0.27,0.60,
2.141,-2.51,-3.25,4.91,-2.10,0.27,0.60,
2.141,-2.51,-3.25,4.91,-1.87,0.23,0.60,
2.144,-2.51,-3.25,4.91,-1.63,0.19,0.60,
2.145,-2.09,-3.11,4.99,-1.63,0.19,0.60,
2.16,-2.09,-3.11,4.99,-1.39,0.16,0.60,
2.16,-2.09,-3.11,4.99,-1.15,0.12,0.59,
2.161,-1.65,-2.98,4.83,-1.15,0.12,0.59,
2.161,-1.65,-2.98,4.83,-0.91,0.07,0.57,
2.161,-1.65,-2.98,4.83,-0.67,0.03,0.54,
2.161,-1.32,-2.82,4.59,-0.67,0.03,0.54,
2.162,-1.32,-2.82,4.59,-0.45,-0.01,0.50,
2.162,-1.32,-2.82,4.59,-0.22,-0.06,0.46,
2.162,-0.92,-2.61,4.34,-0.22,-0.06,0.46,
2.163,-0.92,-2.61,4.34,-0.00,-0.11,0.41,
2.163,-0.92,-2.61,4.34,0.21,-0.16,0.36,
2.165,-0.68,-2.40,4.14,0.21,-0.16,0.36,
2.167,-0.68,-2.40,4.14,0.41,-0.21,0.31,
2.168,-0.68,-2.40,4.14,0.60,-0.26,0.25,
2.175,-0.59,-2.22,3.86,0.60,-0.26,0.25,
2.176,-0.59,-2.22,3.86,0.78,-0.31,0.20,
2.177,-0.59,-2.22,3.86,0.95,-0.35,0.14,
2.177,-0.61,-2.03,3.50,0.95,-0.35,0.14,
2.177,-0.61,-2.03,3.50,1.12,-0.39,0.09,
2.178,-0.61,-2.03,3.50,1.26,-0.44,0.04,
2.18,-0.76,-1.85,3.05,1.26,-0.44,0.04,
2.181,-0.76,-1.85,3.05,1.40,-0.48,-0.00,
2.183,-0.76,-1.85,3.05,1.53,-0.52,-0.04,
2.186,-0.97,-1.71,2.61,1.53,-0.52,-0.04,
2.186,-0.97,-1.71,2.61,1.64,-0.57,-0.07,
2.19,-0.97,-1.71,2.61,1.74,-0.61,-0.11,
2.191,-1.25,-1.63,2.16,1.74,-0.61,-0.11,
2.192,-1.25,-1.63,2.16,1.82,-0.65,-0.13,
2.192,-1.25,-1.63,2.16,1.89,-0.69,-0.14,
2.195,-1.25,-1.63,2.16,1.95,-0.72,-0.15,
2.195,-1.56,-1.51,1.71,1.95,-0.72,-0.15,
2.198,-1.56,-1.51,1.71,1.99,-0.75,-0.15,
2.201,-1.56,-1.51,1.71,2.03,-0.77,-0.15,
2.201,-1.81,-1.37,1.45,2.03,-0.77,-0.15,
2.202,-1.81,-1.37,1.45,2.05,-0.77,-0.14,
2.206,-1.81,-1.37,1.45,2.06,-0.77,-0.13,
2.208,-1.85,-1.09,1.57,2.06,-0.77,-0.13,
2.209,-1.85,-1.09,1.57,2.06,-0.75,-0.11,
2.21,-1.85,-1.09,1.57,2.06,-0.71,-0.09,
2.21,-1.85,-0.69,1.69,2.06,-0.71,-0.09,
2.213,-1.85,-0.69,1.69,2.05,-0.67,-0.07,
2.215,-1.85,-0.69,1.69,2.03,-0.62,-0.04,
2.216,-1.73,-0.19,1.68,2.03,-0.62,-0.04,
2.218,-1.73,-0.19,1.68,2.00,-0.57,-0.02,
2.223,-1.73,-0.19,1.68,1.97,-0.51,0.00,
2.224,-1.49,0.33,1.49,1.97,-0.51,0.00,
2.225,-1.49,0.33,1.49,1.93,-0.45,0.02,
2.226,-1.49,0.33,1.49,1.89,-0.40,0.04,
2.226,-1.27,0.96,0.89,1.89,-0.40,0.04,
2.228,-1.27,0.96,0.89,1.84,-0.37,0.06,
2.231,-1.00,1.61,0.12,1.84,-0.37,0.06,
2.232,-1.00,1.61,0.12,1.78,-0.33,0.07,
2.234,-1.00,1.61,0.12,1.72,-0.32,0.07,
2.237,-1.00,1.61,0.12,1.65,-0.31,0.08,
2.238,-0.73,2.17,-0.62,1.65,-0.31,0.08,
2.239,-0.73,2.17,-0.62,1.57,-0.31,0.07,
2.24,-0.73,2.17,-0.62,1.49,-0.31,0.06,
2.241,-0.44,2.58,-1.17,1.49,-0.31,0.06,
2.243,-0.44,2.58,-1.17,1.40,-0.33,0.05,
2.245,-0.44,2.58,-1.17,1.31,-0.34,0.04,
2.245,-0.16,2.91,-1.49,1.31,-0.34,0.04,
2.247,-0.16,2.91,-1.49,1.21,-0.35,0.02,
2.25,0.18,3.10,-1.57,1.21,-0.35,0.02,
2.251,0.18,3.10,-1.57,1.11,-0.36,-0.00,
2.252,0.18,3.10,-1.57,1.00,-0.37,-0.03,
2.255,0.18,3.10,-1.57,0.89,-0.37,-0.05,
2.256,0.43,3.14,-1.65,0.89,-0.37,-0.05,
2.257,0.43,3.14,-1.65,0.78,-0.37,-0.08,
2.261,0.43,3.14,-1.65,0.66,-0.36,-0.11,
2.261,0.66,3.01,-1.58,0.66,-0.36,-0.11,
2.262,0.66,3.01,-1.58,0.53,-0.35,-0.13,
2.265,0.78,2.65,-1.70,0.53,-0.35,-0.13,
2.265,0.78,2.65,-1.70,0.40,-0.33,-0.15,
2.267,0.78,2.65,-1.70,0.26,-0.31,-0.16,
2.273,0.82,2.23,-2.12,0.26,-0.31,-0.16,
2.274,0.82,2.23,-2.12,0.12,-0.30,-0.17,
2.274,0.82,2.23,-2.12,-0.03,-0.28,-0.18,
2.275,0.88,1.89,-2.54,-0.03,-0.28,-0.18,
2.275,0.88,1.89,-2.54,-0.18,-0.27,-0.18,
2.282,0.97,1.47,-2.79,-0.18,-0.27,-0.18,
2.282,0.97,1.47,-2.79,-0.34,-0.26,-0.17,
2.283,0.97,1.47,-2.79,-0.49,-0.24,-0.16,
2.283,0.97,1.47,-2.79,-0.65,-0.23,-0.14,
2.285,1.11,1.02,-2.68,-0.65,-0.23,-0.14,
2.285,1.11,1.02,-2.68,-0.81,-0.22,-0.12,
2.288,1.11,1.02,-2.68,-0.96,-0.21,-0.10,
2.291,1.11,1.02,-2.68,-1.11,-0.19,-0.07,
2.291,1.36,0.64,-2.34,-1.11,-0.19,-0.07,
2.293,1.36,0.64,-2.34,-1.25,-0.16,-0.04,
2.295,1.71,0.31,-1.73,-1.25,-0.16,-0.04,
2.296,1.71,0.31,-1.73,-1.39,-0.14,-0.02,
2.297,1.71,0.31,-1.73,-1.52,-0.11,0.01,
2.3,2.09,0.03,-1.06,-1.52,-0.11,0.01,
2.301,2.09,0.03,-1.06,-1.64,-0.07,0.03,
2.302,2.09,0.03,-1.06,-1.74,-0.03,0.05,
2.307,2.45,-0.14,-0.29,-1.74,-0.03,0.05,
2.308,2.45,-0.14,-0.29,-1.84,0.01,0.06,
2.312,2.72,-0.17,0.72,-1.84,0.01,0.06,
2.313,2.72,-0.17,0.72,-1.91,0.06,0.07,
2.314,2.72,-0.17,0.72,-1.97,0.12,0.08,
2.343,2.72,-0.17,0.72,-2.02,0.18,0.07,
2.343,2.85,-0.04,1.76,-2.02,0.18,0.07,
2.344,2.85,0.18,2.80,-2.02,0.18,0.07,
2.344,2.85,0.18,2.80,-2.05,0.25,0.06,
2.345,2.85,0.18,2.80,-2.06,0.31,0.05,
2.345,2.85,0.18,2.80,-2.05,0.38,0.02,
2.346,2.85,0.18,2.80,-2.02,0.45,-0.01,
2.346,2.85,0.18,2.80,-1.98,0.51,-0.05,
2.347,2.64,0.51,3.73,-1.98,0.51,-0.05,
2.347,2.26,0.90,4.48,-1.98,0.51,-0.05,
2.348,2.26,0.90,4.48,-1.92,0.57,-0.09,
2.348,2.26,0.90,4.48,-1.83,0.62,-0.14,
2.348,2.26,0.90,4.48,-1.73,0.66,-0.18,
2.349,2.26,0.90,4.48,-1.62,0.69,-0.24,
2.349,2.26,0.90,4.48,-1.49,0.69,-0.29,
2.35,2.26,0.90,4.48,-1.35,0.69,-0.35,
2.35,1.78,1.31,5.09,-1.35,0.69,-0.35,
2.351,1.19,1.69,5.65,-1.35,0.69,-0.35,
2.351,1.19,1.69,5.65,-1.19,0.66,-0.42,
2.351,1.19,1.69,5.65,-1.02,0.63,-0.48,
2.352,0.56,1.95,6.23,-1.02,0.63,-0.48,
2.352,0.56,1.95,6.23,-0.84,0.59,-0.54,
2.353,-0.09,2.04,6.92,-0.84,0.59,-0.54,
2.353,-0.09,2.04,6.92,-0.66,0.53,-0.59,
2.354,-0.09,2.04,6.92,-0.47,0.47,-0.65,
2.357,-0.64,2.00,7.66,-0.47,0.47,-0.65,
2.36,-0.64,2.00,7.66,-0.28,0.41,-0.70,
2.361,-0.64,2.00,7.66,-0.09,0.35,-0.75,
2.361,-0.89,1.76,8.26,-0.09,0.35,-0.75,
2.361,-0.89,1.76,8.26,0.10,0.28,-0.79,
2.362,-0.89,1.76,8.26,0.28,0.21,-0.82,
2.364,-0.89,1.76,8.26,0.44,0.14,-0.85,
2.365,-0.87,1.13,8.02,0.44,0.14,-0.85,
2.366,-0.87,1.13,8.02,0.58,0.05,-0.87,
2.369,-0.87,1.13,8.02,0.70,-0.06,-0.87,
2.369,-0.60,0.19,6.12,0.70,-0.06,-0.87,
2.373,-0.60,0.19,6.12,0.79,-0.20,-0.87,
2.375,-0.60,0.19,6.12,0.86,-0.37,-0.84,
2.376,-0.19,-0.69,3.38,0.86,-0.37,-0.84,
2.376,-0.19,-0.69,3.38,0.89,-0.55,-0.81,
2.379,-0.19,-0.69,3.38,0.90,-0.75,-0.76,
2.379,0.31,-1.36,1.12,0.90,-0.75,-0.76,
2.381,0.31,-1.36,1.12,0.89,-0.95,-0.70,
2.384,0.82,-1.80,-0.55,0.89,-0.95,-0.70,
2.385,0.82,-1.80,-0.55,0.87,-1.15,-0.62,
2.386,0.82,-1.80,-0.55,0.83,-1.33,-0.52,
2.394,0.82,-1.80,-0.55,0.78,-1.50,-0.42,
2.395,1.57,-2.18,-1.61,0.78,-1.50,-0.42,
2.395,1.57,-2.18,-1.61,0.72,-1.62,-0.30,
2.396,2.31,-2.78,-1.55,0.72,-1.62,-0.30,
2.396,2.31,-2.78,-1.55,0.65,-1.71,-0.17,
2.396,2.31,-2.78,-1.55,0.58,-1.73,-0.02,
2.399,2.31,-2.78,-1.55,0.49,-1.69,0.14,
2.4,3.01,-3.52,-0.77,0.49,-1.69,0.14,
2.402,3.01,-3.52,-0.77,0.42,-1.58,0.31,
2.405,3.01,-3.52,-0.77,0.33,-1.42,0.49,
2.406,3.52,-4.00,0.00,0.33,-1.42,0.49,
2.408,3.52,-4.00,0.00,0.25,-1.19,0.66,
2.409,3.74,-4.08,0.22,0.25,-1.19,0.66,
2.41,3.74,-4.08,0.22,0.17,-0.93,0.83,
2.411,3.74,-4.08,0.22,0.09,-0.63,0.99,
2.414,3.74,-4.08,0.22,-0.00,-0.32,1.13,
2.414,3.78,-3.88,-0.45,-0.00,-0.32,1.13,
2.417,3.78,-3.88,-0.45,-0.08,-0.01,1.25,
2.419,3.78,-3.88,-0.45,-0.17,0.30,1.35,
2.419,3.81,-3.59,-1.54,-0.17,0.30,1.35,
2.423,3.81,-3.59,-1.54,-0.25,0.58,1.43,
2.425,3.81,-3.59,-1.54,-0.33,0.84,1.48,
2.426,3.76,-3.17,-2.36,-0.33,0.84,1.48,
2.428,3.76,-3.17,-2.36,-0.41,1.08,1.50,
2.429,3.72,-2.69,-2.36,-0.41,1.08,1.50,
2.429,3.72,-2.69,-2.36,-0.48,1.31,1.49,
2.432,3.72,-2.69,-2.36,-0.54,1.50,1.46,
2.434,3.61,-2.23,-1.44,-0.54,1.50,1.46,
2.434,3.61,-2.23,-1.44,-0.60,1.67,1.41,
2.436,3.61,-2.23,-1.44,-0.64,1.82,1.34,
2.439,3.61,-2.23,-1.44,-0.68,1.94,1.25,
2.44,3.33,-1.89,-0.13,-0.68,1.94,1.25,
2.443,3.33,-1.89,-0.13,-0.70,2.02,1.14,
2.448,2.73,-1.74,0.89,-0.70,2.02,1.14,
2.449,2.73,-1.74,0.89,-0.71,2.06,1.03,
2.449,2.73,-1.74,0.89,-0.71,2.05,0.92,
2.449,1.77,-1.75,1.34,-0.71,2.05,0.92,
2.449,1.77,-1.75,1.34,-0.70,2.01,0.80,
2.451,1.77,-1.75,1.34,-0.67,1.91,0.69,
2.456,1.77,-1.75,1.34,-0.64,1.77,0.58,
2.457,0.63,-1.76,1.14,-0.64,1.77,0.58,
2.459,0.63,-1.76,1.14,-0.60,1.59,0.47,
2.46,0.63,-1.76,1.14,-0.55,1.38,0.36,
2.46,-0.54,-1.75,0.73,-0.55,1.38,0.36,
2.462,-0.54,-1.75,0.73,-0.48,1.15,0.27,
2.463,-0.54,-1.75,0.73,-0.41,0.89,0.18,
2.464,-1.67,-1.69,0.37,-0.41,0.89,0.18,
2.466,-1.67,-1.69,0.37,-0.33,0.63,0.10,
2.468,-1.67,-1.69,0.37,-0.25,0.37,0.02,
2.469,-2.67,-1.60,0.14,-0.25,0.37,0.02,
2.472,-2.67,-1.60,0.14,-0.16,0.12,-0.04,
2.476,-3.40,-1.50,0.11,-0.16,0.12,-0.04,
2.477,-3.40,-1.50,0.11,-0.07,-0.11,-0.09,
2.478,-3.40,-1.50,0.11,0.03,-0.30,-0.14,
2.508,-3.40,-1.50,0.11,0.12,-0.46,-0.18,
2.508,-3.72,-1.54,0.50,0.12,-0.46,-0.18,
2.509,-3.72,-1.54,0.50,0.22,-0.58,-0.20,
2.51,-3.72,-1.54,0.50,0.32,-0.66,-0.22,
2.51,-3.66,-1.76,1.01,0.32,-0.66,-0.22,
2.511,-3.66,-1.76,1.01,0.41,-0.72,-0.23,
2.512,-3.66,-1.76,1.01,0.49,-0.75,-0.23,
2.512,-3.44,-2.04,1.22,0.49,-0.75,-0.23,
2.513,-3.44,-2.04,1.22,0.58,-0.76,-0.23,
2.514,-3.14,-2.36,0.87,0.58,-0.76,-0.23,
2.514,-3.14,-2.36,0.87,0.65,-0.77,-0.22,
2.515,-3.14,-2.36,0.87,0.71,-0.76,-0.20,
2.515,-3.14,-2.36,0.87,0.77,-0.76,-0.17,
2.516,-3.14,-2.36,0.87,0.82,-0.76,-0.14,
2.516,-2.76,-2.65,0.05,0.82,-0.76,-0.14,
2.517,-2.76,-2.65,0.05,0.86,-0.76,-0.10,
2.518,-2.76,-2.65,0.05,0.88,-0.76,-0.05,
2.519,-2.35,-2.83,-1.06,0.88,-0.76,-0.05,
2.519,-2.35,-2.83,-1.06,0.90,-0.77,-0.01,
2.52,-2.35,-2.83,-1.06,0.91,-0.78,0.05,
2.52,-1.85,-2.93,-2.19,0.91,-0.78,0.05,
2.521,-1.85,-2.93,-2.19,0.91,-0.78,0.10,
2.522,-1.23,-2.95,-2.96,0.91,-0.78,0.10,
2.522,-1.23,-2.95,-2.96,0.91,-0.77,0.16,
2.523,-0.31,-2.92,-3.09,0.91,-0.77,0.16,
2.523,-0.31,-2.92,-3.09,0.90,-0.76,0.21,
2.524,-0.31,-2.92,-3.09,0.88,-0.73,0.27,
2.525,-0.31,-2.92,-3.09,0.86,-0.68,0.33,
2.525,0.61,-2.99,-2.86,0.86,-0.68,0.33,
2.526,0.61,-2.99,-2.86,0.84,-0.61,0.39,
2.532,0.61,-2.99,-2.86,0.81,-0.53,0.45,
2.533,1.55,-2.95,-2.50,0.81,-0.53,0.45,
2.534,1.55,-2.95,-2.50,0.77,-0.44,0.51,
2.534,1.55,-2.95,-2.50,0.74,-0.34,0.56,
2.535,2.24,-2.77,-2.33,0.74,-0.34,0.56,
2.536,2.24,-2.77,-2.33,0.70,-0.24,0.60,
2.543,2.24,-2.77,-2.33,0.67,-0.14,0.64,
2.544,2.64,-2.39,-2.44,0.67,-0.14,0.64,
2.544,2.64,-2.39,-2.44,0.62,-0.04,0.67,
2.545,2.64,-2.39,-2.44,0.58,0.05,0.69,
2.545,2.85,-1.79,-2.64,0.58,0.05,0.69,
2.546,2.85,-1.79,-2.64,0.54,0.13,0.69,
2.549,2.85,-1.79,-2.64,0.50,0.20,0.68,
2.549,2.88,-1.17,-2.75,0.50,0.20,0.68,
2.551,2.88,-1.17,-2.75,0.46,0.27,0.66,
2.555,2.71,-0.64,-2.66,0.46,0.27,0.66,
2.556,2.71,-0.64,-2.66,0.42,0.32,0.63,
2.556,2.71,-0.64,-2.66,0.38,0.36,0.59,
2.558,2.29,-0.27,-2.31,0.38,0.36,0.59,
2.559,2.29,-0.27,-2.31,0.34,0.39,0.54,
2.561,2.29,-0.27,-2.31,0.31,0.41,0.48,
2.563,1.78,-0.10,-1.96,0.31,0.41,0.48,
2.564,1.78,-0.10,-1.96,0.27,0.42,0.42,
2.566,1.78,-0.10,-1.96,0.24,0.42,0.36,
2.569,1.10,-0.02,-1.83,0.24,0.42,0.36,
2.569,1.10,-0.02,-1.83,0.20,0.41,0.29,
2.573,1.10,-0.02,-1.83,0.17,0.38,0.22,
2.574,0.27,0.05,-1.88,0.17,0.38,0.22,
2.574,0.27,0.05,-1.88,0.14,0.34,0.15,
2.576,0.27,0.05,-1.88,0.11,0.29,0.09,
2.578,-0.56,0.03,-2.02,0.11,0.29,0.09,
2.579,-0.56,0.03,-2.02,0.08,0.22,0.03,
2.58,-0.56,0.03,-2.02,0.06,0.15,-0.03,
2.583,-1.27,-0.09,-2.08,0.06,0.15,-0.03,
2.583,-1.27,-0.09,-2.08,0.03,0.07,-0.08,
2.586,-1.27,-0.09,-2.08,0.00,-0.01,-0.12,
2.588,-1.27,-0.09,-2.08,-0.02,-0.09,-0.15,
2.589,-1.83,-0.25,-1.93,-0.02,-0.09,-0.15,
2.592,-1.83,-0.25,-1.93,-0.04,-0.17,-0.19,
2.594,-2.28,-0.47,-1.74,-0.04,-0.17,-0.19,
2.594,-2.28,-0.47,-1.74,-0.05,-0.25,-0.21,
2.595,-2.28,-0.47,-1.74,-0.06,-0.32,-0.22,
2.598,-2.28,-0.47,-1.74,-0.07,-0.39,-0.23,
2.599,-2.57,-0.74,-1.59,-0.07,-0.39,-0.23,
2.601,-2.57,-0.74,-1.59,-0.08,-0.45,-0.23,
2.603,-2.57,-0.74,-1.59,-0.08,-0.51,-0.23,
2.604,-2.73,-0.97,-1.50,-0.08,-0.51,-0.23,
2.61,-2.73,-0.97,-1.50,-0.09,-0.57,-0.22,
2.612,-2.80,-1.24,-1.39,-0.09,-0.57,-0.22,
2.612,-2.80,-1.24,-1.39,-0.08,-0.61,-0.20,
2.613,-2.80,-1.24,-1.39,-0.08,-0.65,-0.18,
2.613,-2.81,-1.49,-1.33,-0.08,-0.65,-0.18,
2.614,-2.81,-1.49,-1.33,-0.07,-0.69,-0.15,
2.615,-2.81,-1.49,-1.33,-0.06,-0.73,-0.12,
2.618,-2.71,-1.64,-1.26,-0.06,-0.73,-0.12,
2.619,-2.71,-1.64,-1.26,-0.05,-0.76,-0.09,
2.623,-2.71,-1.64,-1.26,-0.03,-0.78,-0.05,
2.624,-2.48,-1.76,-1.13,-0.03,-0.78,-0.05,
2.625,-2.48,-1.76,-1.13,-0.01,-0.80,-0.01,
2.63,-2.48,-1.76,-1.13,0.02,-0.81,0.03,
2.631,-2.26,-1.83,-0.94,0.02,-0.81,0.03,
2.631,-2.26,-1.83,-0.94,0.04,-0.82,0.07,
2.633,-2.26,-1.83,-0.94,0.07,-0.82,0.12,
2.633,-2.02,-1.85,-0.68,0.07,-0.82,0.12,
2.634,-2.02,-1.85,-0.68,0.11,-0.82,0.15,
2.635,-2.02,-1.85,-0.68,0.15,-0.81,0.20,
2.64,-1.77,-1.85,-0.36,0.15,-0.81,0.20,
2.64,-1.77,-1.85,-0.36,0.20,-0.80,0.24,
2.643,-1.77,-1.85,-0.36,0.24,-0.79,0.28,
2.65,-1.53,-1.80,-0.16,0.24,-0.79,0.28,
2.67,-1.53,-1.80,-0.16,0.29,-0.77,0.32,
2.671,-1.53,-1.80,-0.16,0.35,-0.75,0.35,
2.671,-1.53,-1.80,-0.16,0.40,-0.73,0.39,
2.671,-1.53,-1.80,-0.16,0.45,-0.72,0.43,
2.672,-1.53,-1.80,-0.16,0.51,-0.70,0.46,
2.672,-1.35,-1.71,-0.01,0.51,-0.70,0.46,
2.673,-1.18,-1.59,0.07,0.51,-0.70,0.46,
2.673,-1.18,-1.59,0.07,0.57,-0.69,0.49,
2.674,-1.18,-1.59,0.07,0.63,-0.67,0.52,
2.675,-1.03,-1.49,0.21,0.63,-0.67,0.52,
2.676,-1.03,-1.49,0.21,0.70,-0.65,0.55,
2.676,-1.03,-1.49,0.21,0.75,-0.63,0.57,
2.677,-0.90,-1.39,0.41,0.75,-0.63,0.57,
2.677,-0.90,-1.39,0.41,0.81,-0.61,0.59,
2.678,-0.81,-1.21,0.49,0.81,-0.61,0.59,
2.678,-0.81,-1.21,0.49,0.87,-0.59,0.61,
2.679,-0.81,-1.21,0.49,0.93,-0.56,0.62,
2.679,-0.81,-1.21,0.49,0.98,-0.54,0.64,
2.68,-0.82,-1.07,0.46,0.98,-0.54,0.64,
2.682,-0.82,-1.07,0.46,1.03,-0.52,0.65,
2.683,-0.81,-0.90,0.28,1.03,-0.52,0.65,
2.683,-0.81,-0.90,0.28,1.08,-0.49,0.66,
2.683,-0.81,-0.90,0.28,1.12,-0.47,0.67,
2.684,-0.76,-0.72,0.13,1.12,-0.47,0.67,
2.684,-0.76,-0.72,0.13,1.16,-0.45,0.67,
2.691,-0.72,-0.57,0.05,1.16,-0.45,0.67,
2.692,-0.72,-0.57,0.05,1.19,-0.44,0.68,
2.692,-0.72,-0.57,0.05,1.22,-0.42,0.69,
2.695,-0.72,-0.57,0.05,1.25,-0.40,0.69,
2.695,-0.66,-0.37,-0.10,1.25,-0.40,0.69,
2.695,-0.66,-0.37,-0.10,1.27,-0.39,0.69,
2.695,-0.66,-0.37,-0.10,1.28,-0.38,0.68,
2.698,-0.66,-0.37,-0.10,1.29,-0.36,0.68,
2.698,-0.59,-0.12,-0.36,1.29,-0.36,0.68,
2.7,-0.59,-0.12,-0.36,1.30,-0.36,0.67,
2.719,-0.59,-0.12,-0.36,1.30,-0.35,0.66,
2.723,-0.48,0.16,-0.63,1.30,-0.35,0.66,
2.725,-0.48,0.16,-0.63,1.29,-0.35,0.65,
2.726,-0.34,0.47,-0.83,1.29,-0.35,0.65,
2.727,-0.34,0.47,-0.83,1.28,-0.34,0.64,
2.728,-0.34,0.47,-0.83,1.28,-0.34,0.62,
2.729,-0.14,0.79,-0.89,1.28,-0.34,0.62,
2.73,-0.14,0.79,-0.89,1.26,-0.34,0.60,
2.73,-0.14,0.79,-0.89,1.25,-0.33,0.58,
2.731,-0.14,0.79,-0.89,1.23,-0.33,0.55,
2.732,0.07,1.12,-0.95,1.23,-0.33,0.55,
2.733,0.07,1.12,-0.95,1.20,-0.31,0.53,
2.733,0.07,1.12,-0.95,1.17,-0.31,0.50,
2.734,0.19,1.41,-0.96,1.17,-0.31,0.50,
2.735,0.19,1.41,-0.96,1.14,-0.30,0.48,
2.736,0.19,1.41,-0.96,1.11,-0.28,0.45,
2.736,0.31,1.69,-0.96,1.11,-0.28,0.45,
2.737,0.31,1.69,-0.96,1.08,-0.27,0.42,
2.738,0.38,1.89,-1.09,1.08,-0.27,0.42,
2.739,0.38,1.89,-1.09,1.04,-0.26,0.40,
2.74,0.38,1.89,-1.09,1.00,-0.24,0.38,
2.74,0.31,2.02,-1.41,1.00,-0.24,0.38,
2.741,0.31,2.02,-1.41,0.96,-0.22,0.36,
2.742,0.31,2.02,-1.41,0.91,-0.21,0.33,
2.745,0.22,2.06,-1.62,0.91,-0.21,0.33,
2.746,0.22,2.06,-1.62,0.85,-0.20,0.32,
2.746,0.22,2.06,-1.62,0.79,-0.18,0.31,
2.747,0.22,2.06,-1.62,0.74,-0.16,0.30,
2.748,0.10,2.03,-1.69,0.74,-0.16,0.30,
2.75,0.10,2.03,-1.69,0.68,-0.14,0.29,
2.752,0.10,2.03,-1.69,0.61,-0.12,0.28,
2.753,0.03,1.95,-1.67,0.61,-0.12,0.28,
2.756,0.03,1.95,-1.67,0.55,-0.09,0.28,
2.757,0.03,1.95,-1.67,0.48,-0.06,0.28,
2.758,0.02,1.76,-1.65,0.48,-0.06,0.28,
2.76,0.02,1.76,-1.65,0.40,-0.03,0.28,
2.763,0.01,1.57,-1.64,0.40,-0.03,0.28,
2.764,0.01,1.57,-1.64,0.33,-0.00,0.28,
2.765,0.01,1.57,-1.64,0.26,0.03,0.29,
2.768,0.03,1.44,-1.72,0.26,0.03,0.29,
2.768,0.03,1.44,-1.72,0.18,0.05,0.30,
2.77,0.03,1.44,-1.72,0.11,0.07,0.31,
2.774,0.03,1.44,-1.72,0.04,0.10,0.32,
2.774,0.03,1.33,-1.72,0.04,0.10,0.32,
2.775,0.03,1.33,-1.72,-0.02,0.12,0.33,
2.777,0.02,1.31,-1.54,-0.02,0.12,0.33,
2.777,0.02,1.31,-1.54,-0.08,0.15,0.34,
2.779,0.02,1.31,-1.54,-0.14,0.17,0.35,
2.782,0.06,1.24,-1.23,-0.14,0.17,0.35,
2.782,0.06,1.24,-1.23,-0.19,0.20,0.36,
2.784,0.06,1.24,-1.23,-0.24,0.23,0.37,
2.788,0.06,1.24,-1.23,-0.28,0.25,0.37,
2.79,0.06,1.24,-1.23,-0.31,0.28,0.38,
2.79,0.12,1.17,-0.87,-0.31,0.28,0.38,
2.792,0.25,1.09,-0.47,-0.31,0.28,0.38,
2.792,0.25,1.09,-0.47,-0.34,0.31,0.39,
2.794,0.25,1.09,-0.47,-0.37,0.34,0.39,
2.797,0.36,1.02,-0.04,-0.37,0.34,0.39,
2.797,0.36,1.02,-0.04,-0.38,0.37,0.39,
2.8,0.36,1.02,-0.04,-0.39,0.40,0.40,
2.803,0.40,0.96,0.26,-0.39,0.40,0.40,
2.803,0.40,0.96,0.26,-0.39,0.42,0.40,
2.805,0.40,0.96,0.26,-0.38,0.44,0.40,
2.808,0.35,0.93,0.35,-0.38,0.44,0.40,
2.808,0.35,0.93,0.35,-0.38,0.46,0.40,
2.821,0.35,0.93,0.35,-0.37,0.48,0.40,
2.821,0.17,0.88,0.38,-0.37,0.48,0.40,
2.822,0.17,0.88,0.38,-0.35,0.49,0.40,
2.822,0.17,0.88,0.38,-0.32,0.50,0.40,
2.822,-0.06,0.85,0.48,-0.32,0.50,0.40,
2.823,-0.06,0.85,0.48,-0.29,0.51,0.40,
2.823,-0.06,0.85,0.48,-0.26,0.51,0.40,
2.823,-0.33,0.84,0.34,-0.26,0.51,0.40,
2.823,-0.33,0.84,0.34,-0.22,0.51,0.40,
2.827,-0.33,0.84,0.34,-0.18,0.50,0.40,
2.828,-0.56,0.84,0.34,-0.18,0.50,0.40,
2.829,-0.56,0.84,0.34,-0.14,0.49,0.40,
2.83,-0.56,0.84,0.34,-0.09,0.49,0.41,
2.833,-0.56,0.84,0.34,-0.04,0.48,0.41,
2.833,-0.77,0.81,0.61,-0.04,0.48,0.41,
2.834,-0.77,0.81,0.61,0.00,0.47,0.41,
2.838,-0.90,0.84,0.67,0.00,0.47,0.41,
2.839,-0.90,0.84,0.67,0.06,0.45,0.41,
2.842,-0.90,0.84,0.67,0.11,0.43,0.42,
2.842,-0.90,0.84,0.67,0.16,0.40,0.43,
2.843,-0.97,0.87,0.56,0.16,0.40,0.43,
2.844,-0.97,0.87,0.56,0.22,0.37,0.43,
2.847,-0.97,0.87,0.56,0.27,0.33,0.43,
2.847,-0.98,0.88,0.51,0.27,0.33,0.43,
2.849,-0.98,0.88,0.51,0.33,0.30,0.43,
2.852,-0.98,0.88,0.51,0.37,0.26,0.44,
2.852,-0.91,0.87,0.64,0.37,0.26,0.44,
2.855,-0.91,0.87,0.64,0.43,0.23,0.44,
2.857,-0.91,0.87,0.64,0.47,0.20,0.44,
2.857,-0.77,0.86,0.84,0.47,0.20,0.44,
2.859,-0.77,0.86,0.84,0.51,0.18,0.44,
2.862,-0.56,0.83,0.84,0.51,0.18,0.44,
2.862,-0.56,0.83,0.84,0.55,0.16,0.44,
2.864,-0.56,0.83,0.84,0.58,0.14,0.44,
2.867,-0.34,0.84,0.63,0.58,0.14,0.44,
2.868,-0.34,0.84,0.63,0.61,0.13,0.43,
2.87,-0.34,0.84,0.63,0.63,0.11,0.42,
2.872,-0.14,0.90,0.27,0.63,0.11,0.42,
2.873,-0.14,0.90,0.27,0.64,0.09,0.41,
2.876,-0.14,0.90,0.27,0.66,0.08,0.41,
2.877,-0.14,0.90,0.27,0.66,0.07,0.40,
2.877,0.01,1.03,-0.04,0.66,0.07,0.40,
2.879,0.01,1.03,-0.04,0.66,0.06,0.38,
2.882,0.15,1.13,-0.26,0.66,0.06,0.38,
2.883,0.15,1.13,-0.26,0.65,0.05,0.37,
2.885,0.15,1.13,-0.26,0.64,0.05,0.35,
2.887,0.15,1.13,-0.26,0.63,0.04,0.34,
2.888,0.31,1.26,-0.57,0.63,0.04,0.34,
2.89,0.31,1.26,-0.57,0.62,0.03,0.31,
2.892,0.43,1.47,-0.90,0.62,0.03,0.31,
2.893,0.43,1.47,-0.90,0.59,0.03,0.29,
2.894,0.43,1.47,-0.90,0.57,0.02,0.27,
2.897,0.46,1.73,-1.32,0.57,0.02,0.27,
2.897,0.46,1.73,-1.32,0.55,-0.00,0.25,
2.898,0.46,1.73,-1.32,0.51,-0.02,0.22,
2.901,0.41,1.93,-1.75,0.51,-0.02,0.22,
2.902,0.41,1.93,-1.75,0.48,-0.04,0.20,
2.905,0.41,1.93,-1.75,0.44,-0.07,0.17,
2.907,0.41,2.11,-1.99,0.44,-0.07,0.17,
2.907,0.41,2.11,-1.99,0.40,-0.09,0.15,
2.91,0.41,2.11,-1.99,0.36,-0.12,0.13,
2.912,0.41,2.11,-1.99,0.32,-0.14,0.11,
2.913,0.44,2.15,-1.83,0.32,-0.14,0.11,
2.915,0.44,2.15,-1.83,0.27,-0.15,0.09,
2.917,0.42,2.12,-1.48,0.27,-0.15,0.09,
2.917,0.42,2.12,-1.48,0.23,-0.15,0.08,
2.919,0.42,2.12,-1.48,0.18,-0.15,0.07,
2.925,0.51,2.11,-1.14,0.18,-0.15,0.07,
2.926,0.51,2.11,-1.14,0.14,-0.14,0.06,
2.927,0.51,2.11,-1.14,0.10,-0.13,0.05,
2.927,0.59,2.08,-0.88,0.10,-0.13,0.05,
2.928,0.59,2.08,-0.88,0.05,-0.11,0.05,
2.929,0.59,2.08,-0.88,0.01,-0.09,0.05,
2.932,0.59,2.08,-0.88,-0.04,-0.08,0.05,
2.932,0.63,2.02,-0.92,-0.04,-0.08,0.05,
2.934,0.63,2.02,-0.92,-0.08,-0.07,0.06,
2.942,0.63,1.91,-1.18,-0.08,-0.07,0.06,
2.943,0.63,1.91,-1.18,-0.13,-0.06,0.07,
2.944,0.63,1.91,-1.18,-0.18,-0.05,0.09,
2.944,0.63,1.91,-1.18,-0.22,-0.04,0.10,
2.945,0.61,1.67,-1.37,-0.22,-0.04,0.10,
2.945,0.61,1.67,-1.37,-0.27,-0.04,0.12,
2.948,0.60,1.46,-1.42,-0.27,-0.04,0.12,
2.949,0.60,1.46,-1.42,-0.31,-0.03,0.15,
2.949,0.60,1.46,-1.42,-0.35,-0.03,0.17,
2.952,0.59,1.26,-1.30,-0.35,-0.03,0.17,
2.953,0.59,1.26,-1.30,-0.39,-0.02,0.20,
2.956,0.59,1.26,-1.30,-0.42,-0.00,0.22,
2.957,0.57,1.08,-1.04,-0.42,-0.00,0.22,
2.958,0.57,1.08,-1.04,-0.44,0.02,0.25,
2.959,0.57,1.08,-1.04,-0.46,0.03,0.27,
2.962,0.65,0.98,-0.72,-0.46,0.03,0.27,
2.963,0.65,0.98,-0.72,-0.47,0.05,0.30,
2.964,0.65,0.98,-0.72,-0.48,0.07,0.32,
2.967,0.67,0.91,-0.47,-0.48,0.07,0.32,
2.967,0.67,0.91,-0.47,-0.48,0.08,0.34,
2.969,0.67,0.91,-0.47,-0.47,0.09,0.36,
2.973,0.64,0.90,-0.20,-0.47,0.09,0.36,
2.973,0.64,0.90,-0.20,-0.45,0.09,0.38,
2.974,0.64,0.90,-0.20,-0.43,0.07,0.39,
2.994,0.45,0.98,-0.30,-0.43,0.07,0.39,
2.995,0.45,0.98,-0.30,-0.40,0.04,0.40,
2.995,0.45,0.98,-0.30,-0.37,-0.02,0.41,
2.996,0.11,1.04,-0.62,-0.37,-0.02,0.41,
2.996,0.11,1.04,-0.62,-0.33,-0.10,0.41,
2.996,0.11,1.04,-0.62,-0.30,-0.19,0.40,
2.997,-0.07,0.95,-0.18,-0.30,-0.19,0.40,
2.997,-0.07,0.95,-0.18,-0.25,-0.28,0.40,
2.997,-0.07,0.95,-0.18,-0.20,-0.37,0.39,
2.998,0.06,0.67,1.37,-0.20,-0.37,0.39,
2.998,0.06,0.67,1.37,-0.14,-0.43,0.38,
2.999,0.06,0.67,1.37,-0.08,-0.48,0.36,
2.999,0.48,0.43,3.12,-0.08,-0.48,0.36,
2.999,0.48,0.43,3.12,-0.02,-0.51,0.34,
3.0,0.48,0.43,3.12,0.05,-0.52,0.32,
3.003,1.04,0.46,3.62,0.05,-0.52,0.32,
3.006,1.04,0.46,3.62,0.12,-0.54,0.29,
3.006,1.04,0.46,3.62,0.18,-0.57,0.26,
3.008,1.42,0.92,2.41,0.18,-0.57,0.26,
3.009,1.42,0.92,2.41,0.25,-0.63,0.21,
3.01,1.42,0.92,2.41,0.31,-0.70,0.17,
3.011,1.42,0.92,2.41,0.37,-0.80,0.11,
3.015,1.42,0.92,2.41,0.43,-0.90,0.05,
3.016,1.56,1.61,0.55,0.43,-0.90,0.05,
3.017,1.56,1.61,0.55,0.48,-1.01,-0.01,
3.019,1.56,1.61,0.55,0.52,-1.12,-0.07,
3.019,1.68,2.20,-0.72,0.52,-1.12,-0.07,
3.024,1.68,2.20,-0.72,0.56,-1.21,-0.13,
3.027,1.77,2.59,-1.09,0.56,-1.21,-0.13,
3.027,1.77,2.59,-1.09,0.59,-1.28,-0.19,
3.027,2.04,2.68,-0.83,0.59,-1.28,-0.19,
3.027,2.04,2.68,-0.83,0.62,-1.33,-0.25,
3.029,2.04,2.68,-0.83,0.63,-1.35,-0.31,
3.031,2.38,2.50,-0.45,0.63,-1.35,-0.31,
3.031,2.38,2.50,-0.45,0.64,-1.36,-0.36,
3.033,2.38,2.50,-0.45,0.64,-1.34,-0.40,
3.036,2.75,2.10,-0.56,0.64,-1.34,-0.40,
3.036,2.75,2.10,-0.56,0.63,-1.32,-0.44,
3.039,2.75,2.10,-0.56,0.60,-1.30,-0.47,
3.043,2.75,2.10,-0.56,0.55,-1.27,-0.50,
3.043,2.95,1.56,-1.35,0.55,-1.27,-0.50,
3.044,2.95,1.56,-1.35,0.50,-1.25,-0.51,
3.046,3.05,0.97,-2.78,0.50,-1.25,-0.51,
3.046,3.05,0.97,-2.78,0.43,-1.24,-0.52,
3.048,3.05,0.97,-2.78,0.35,-1.24,-0.53,
3.051,3.10,0.40,-4.49,0.35,-1.24,-0.53,
3.051,3.10,0.40,-4.49,0.24,-1.26,-0.52,
3.053,3.10,0.40,-4.49,0.13,-1.30,-0.52,
3.056,3.16,-0.09,-6.01,0.13,-1.30,-0.52,
3.058,3.16,-0.09,-6.01,-0.00,-1.33,-0.51,
3.059,3.16,-0.09,-6.01,-0.15,-1.38,-0.50,
3.061,3.20,-0.58,-6.90,-0.15,-1.38,-0.50,
3.061,3.20,-0.58,-6.90,-0.30,-1.41,-0.48,
3.063,3.20,-0.58,-6.90,-0.45,-1.43,-0.47,
3.066,3.18,-0.92,-7.22,-0.45,-1.43,-0.47,
3.066,3.18,-0.92,-7.22,-0.61,-1.45,-0.46,
3.068,3.18,-0.92,-7.22,-0.78,-1.44,-0.45,
3.071,3.18,-0.92,-7.22,-0.94,-1.40,-0.44,
3.072,3.09,-1.15,-6.96,-0.94,-1.40,-0.44,
3.078,3.09,-1.15,-6.96,-1.11,-1.34,-0.43,
3.078,2.93,-1.42,-6.27,-1.11,-1.34,-0.43,
3.079,2.93,-1.42,-6.27,-1.26,-1.26,-0.42,
3.079,2.93,-1.42,-6.27,-1.42,-1.16,-0.42,
3.084,2.70,-1.77,-5.35,-1.42,-1.16,-0.42,
3.085,2.70,-1.77,-5.35,-1.56,-1.04,-0.42,
3.085,2.70,-1.77,-5.35,-1.70,-0.89,-0.41,
3.087,2.39,-2.10,-4.34,-1.70,-0.89,-0.41,
3.088,2.39,-2.10,-4.34,-1.83,-0.74,-0.41,
3.088,2.39,-2.10,-4.34,-1.95,-0.57,-0.41,
3.092,2.39,-2.10,-4.34,-2.05,-0.39,-0.42,
3.092,2.05,-2.51,-3.21,-2.05,-0.39,-0.42,
3.094,2.05,-2.51,-3.21,-2.15,-0.21,-0.42,
3.096,2.05,-2.51,-3.21,-2.23,-0.02,-0.42,
3.097,1.62,-2.95,-2.13,-2.23,-0.02,-0.42,
3.098,1.62,-2.95,-2.13,-2.30,0.17,-0.43,
3.101,1.20,-3.44,-1.10,-2.30,0.17,-0.43,
3.102,1.20,-3.44,-1.10,-2.36,0.36,-0.43,
3.103,1.20,-3.44,-1.10,-2.40,0.54,-0.44,
3.107,1.20,-3.44,-1.10,-2.44,0.72,-0.45,
3.108,0.79,-3.84,-0.21,-2.44,0.72,-0.45,
3.11,0.79,-3.84,-0.21,-2.45,0.88,-0.46,
3.111,0.36,-4.25,0.63,-2.45,0.88,-0.46,
3.112,0.36,-4.25,0.63,-2.45,1.03,-0.47,
3.114,0.36,-4.25,0.63,-2.44,1.15,-0.48,
3.116,-0.09,-4.58,1.43,-2.44,1.15,-0.48,
3.117,-0.09,-4.58,1.43,-2.41,1.25,-0.50,
3.119,-0.09,-4.58,1.43,-2.37,1.33,-0.51,
3.123,-0.63,-4.78,2.15,-2.37,1.33,-0.51,
3.124,-0.63,-4.78,2.15,-2.31,1.37,-0.53,
3.124,-0.63,-4.78,2.15,-2.24,1.38,-0.55,
3.126,-1.15,-4.98,2.94,-2.24,1.38,-0.55,
3.127,-1.15,-4.98,2.94,-2.16,1.37,-0.57,
3.128,-1.15,-4.98,2.94,-2.05,1.33,-0.59,
3.131,-1.15,-4.98,2.94,-1.94,1.26,-0.61,
3.131,-1.63,-5.10,3.89,-1.94,1.26,-0.61,
3.133,-1.63,-5.10,3.89,-1.80,1.18,-0.63,
3.136,-2.03,-5.17,4.88,-1.80,1.18,-0.63,
3.136,-2.03,-5.17,4.88,-1.65,1.08,-0.65,
3.139,-2.03,-5.17,4.88,-1.48,0.95,-0.67,
3.141,-2.29,-5.08,5.66,-1.48,0.95,-0.67,
3.163,-2.29,-5.08,5.66,-1.30,0.82,-0.69,
3.164,-2.29,-5.08,5.66,-1.10,0.66,-0.71,
3.164,-2.38,-4.85,6.11,-1.10,0.66,-0.71,
3.165,-2.38,-4.85,6.11,-0.89,0.50,-0.73,
3.165,-2.38,-4.85,6.11,-0.67,0.32,-0.75,
3.165,-2.16,-4.46,6.13,-0.67,0.32,-0.75,
3.166,-2.16,-4.46,6.13,-0.43,0.14,-0.77,
3.166,-2.16,-4.46,6.13,-0.19,-0.06,-0.79,
3.166,-1.75,-3.89,6.04,-0.19,-0.06,-0.79,
3.167,-1.75,-3.89,6.04,0.06,-0.25,-0.82,
3.167,-1.75,-3.89,6.04,0.31,-0.44,-0.84,
3.168,-1.10,-3.23,5.65,0.31,-0.44,-0.84,
3.168,-1.10,-3.23,5.65,0.57,-0.62,-0.87,
3.168,-1.10,-3.23,5.65,0.83,-0.79,-0.91,
3.169,-0.34,-2.58,5.17,0.83,-0.79,-0.91,
3.169,-0.34,-2.58,5.17,1.08,-0.95,-0.94,
3.169,-0.34,-2.58,5.17,1.32,-1.10,-0.97,
3.173,0.43,-2.16,4.54,1.32,-1.10,-0.97,
3.174,0.43,-2.16,4.54,1.56,-1.25,-1.01,
3.174,0.43,-2.16,4.54,1.79,-1.38,-1.04,
3.176,1.21,-1.84,3.85,1.79,-1.38,-1.04,
3.176,1.21,-1.84,3.85,2.00,-1.50,-1.08,
3.178,1.21,-1.84,3.85,2.20,-1.61,-1.11,
3.182,1.21,-1.84,3.85,2.39,-1.70,-1.14,
3.182,1.89,-1.68,3.28,2.39,-1.70,-1.14,
3.183,1.89,-1.68,3.28,2.56,-1.77,-1.16,
3.185,1.89,-1.68,3.28,2.71,-1.83,-1.18,
3.186,2.57,-1.70,2.93,2.71,-1.83,-1.18,
3.19,2.57,-1.70,2.93,2.85,-1.86,-1.20,
3.195,3.21,-1.82,2.81,2.85,-1.86,-1.20,
3.196,3.21,-1.82,2.81,2.97,-1.87,-1.21,
3.197,3.21,-1.82,2.81,3.07,-1.85,-1.22,
3.197,3.74,-1.99,2.79,3.07,-1.85,-1.22,
3.198,3.74,-1.99,2.79,3.16,-1.81,-1.22,
3.198,3.74,-1.99,2.79,3.22,-1.73,-1.21,
3.2,3.74,-1.99,2.79,3.28,-1.63,-1.20,
3.201,4.09,-2.04,2.73,3.28,-1.63,-1.20,
3.203,4.09,-2.04,2.73,3.31,-1.50,-1.19,
3.208,4.09,-2.04,2.73,3.32,-1.35,-1.17,
3.21,4.30,-2.00,2.67,3.32,-1.35,-1.17,
3.211,4.30,-2.00,2.67,3.33,-1.16,-1.14,
3.212,4.30,-2.00,2.67,3.31,-0.94,-1.10,
3.212,4.10,-1.88,2.60,3.31,-0.94,-1.10,
3.213,4.10,-1.88,2.60,3.28,-0.69,-1.06,
3.218,3.75,-1.81,2.52,3.28,-0.69,-1.06,
3.218,3.75,-1.81,2.52,3.24,-0.41,-1.01,
3.219,3.75,-1.81,2.52,3.18,-0.10,-0.95,
3.222,3.34,-1.65,1.73,3.18,-0.10,-0.95,
3.225,3.34,-1.65,1.73,3.11,0.22,-0.89,
3.225,3.34,-1.65,1.73,3.01,0.55,-0.83,
3.226,3.34,-1.65,1.73,2.90,0.87,-0.76,
3.227,2.77,-1.40,0.29,2.90,0.87,-0.76,
3.228,2.77,-1.40,0.29,2.78,1.21,-0.69,
3.231,2.77,-1.40,0.29,2.64,1.52,-0.62,
3.232,2.09,-1.04,-1.47,2.64,1.52,-0.62,
3.233,2.09,-1.04,-1.47,2.48,1.81,-0.55,
3.235,2.09,-1.04,-1.47,2.31,2.09,-0.48,
3.236,1.56,-0.62,-3.53,2.31,2.09,-0.48,
3.238,1.56,-0.62,-3.53,2.11,2.33,-0.42,
3.243,1.56,-0.62,-3.53,1.91,2.53,-0.37,
3.243,1.12,-0.08,-5.27,1.91,2.53,-0.37,
3.243,1.12,-0.08,-5.27,1.69,2.67,-0.32,
3.246,1.12,-0.08,-5.27,1.46,2.77,-0.30,
3.247,0.78,0.49,-6.53,1.46,2.77,-0.30,
3.248,0.78,0.49,-6.53,1.23,2.82,-0.28,
3.251,0.78,0.49,-6.53,0.99,2.83,-0.27,
3.251,0.51,1.09,-6.80,0.99,2.83,-0.27,
3.252,0.51,1.09,-6.80,0.75,2.80,-0.28,
3.255,0.51,1.09,-6.80,0.51,2.74,-0.30,
3.255,0.11,1.67,-6.88,0.51,2.74,-0.30,
3.257,0.11,1.67,-6.88,0.26,2.65,-0.33,
3.26,0.11,1.67,-6.88,0.02,2.55,-0.37,
3.26,-0.43,2.12,-6.49,0.02,2.55,-0.37,
3.262,-0.43,2.12,-6.49,-0.22,2.42,-0.41,
3.265,-1.05,2.37,-5.94,-0.22,2.42,-0.41,
3.265,-1.05,2.37,-5.94,-0.45,2.29,-0.46,
3.267,-1.05,2.37,-5.94,-0.68,2.15,-0.51,
3.27,-1.78,2.47,-5.24,-0.68,2.15,-0.51,
3.27,-1.78,2.47,-5.24,-0.90,2.01,-0.55,
3.273,-1.78,2.47,-5.24,-1.10,1.88,-0.60,
3.275,-1.78,2.47,-5.24,-1.30,1.74,-0.65,
3.275,-2.58,2.43,-4.47,-1.30,1.74,-0.65,
3.277,-2.58,2.43,-4.47,-1.48,1.61,-0.69,
3.28,-3.22,2.23,-3.71,-1.48,1.61,-0.69,
3.281,-3.22,2.23,-3.71,-1.65,1.49,-0.72,
3.282,-3.22,2.23,-3.71,-1.81,1.38,-0.75,
3.285,-3.22,2.23,-3.71,-1.95,1.28,-0.77,
3.285,-3.76,1.88,-3.08,-1.95,1.28,-0.77,
3.289,-3.76,1.88,-3.08,-2.08,1.18,-0.78,
3.29,-4.24,1.45,-2.51,-2.08,1.18,-0.78,
3.29,-4.24,1.45,-2.51,-2.19,1.09,-0.78,
3.294,-4.24,1.45,-2.51,-2.30,1.02,-0.78,
3.295,-4.24,1.45,-2.51,-2.39,0.95,-0.77,
3.295,-4.53,0.91,-1.96,-2.39,0.95,-0.77,
3.298,-4.53,0.91,-1.96,-2.46,0.89,-0.75,
3.299,-4.71,0.34,-1.32,-2.46,0.89,-0.75,
3.3,-4.71,0.34,-1.32,-2.53,0.84,-0.73,
3.302,-4.71,0.34,-1.32,-2.58,0.81,-0.70,
3.313,-4.76,-0.20,-0.76,-2.58,0.81,-0.70,
3.314,-4.76,-0.20,-0.76,-2.62,0.78,-0.66,
3.346,-4.76,-0.20,-0.76,-2.65,0.76,-0.61,
3.346,-4.69,-0.75,-0.31,-2.65,0.76,-0.61,
3.347,-4.69,-0.75,-0.31,-2.67,0.75,-0.57,
3.348,-4.53,-1.12,0.15,-2.67,0.75,-0.57,
3.348,-4.53,-1.12,0.15,-2.68,0.74,-0.51,
3.349,-4.53,-1.12,0.15,-2.68,0.73,-0.45,
3.35,-4.27,-1.38,0.45,-2.68,0.73,-0.45,
3.35,-4.27,-1.38,0.45,-2.66,0.73,-0.39,
3.351,-4.27,-1.38,0.45,-2.63,0.73,-0.32,
3.351,-4.04,-1.48,0.64,-2.63,0.73,-0.32,
3.352,-4.04,-1.48,0.64,-2.60,0.72,-0.26,
3.352,-4.04,-1.48,0.64,-2.55,0.71,-0.20,
3.353,-4.04,-1.48,0.64,-2.48,0.70,-0.13,
3.353,-3.75,-1.42,0.77,-2.48,0.70,-0.13,
3.353,-3.75,-1.42,0.77,-2.41,0.68,-0.06,
3.354,-3.75,-1.42,0.77,-2.33,0.66,-0.00,
3.354,-3.49,-1.35,0.85,-2.33,0.66,-0.00,
3.355,-3.49,-1.35,0.85,-2.24,0.64,0.06,
3.355,-3.49,-1.35,0.85,-2.14,0.60,0.11,
3.356,-3.22,-1.25,1.13,-2.14,0.60,0.11,
3.356,-3.22,-1.25,1.13,-2.03,0.57,0.17,
3.357,-3.22,-1.25,1.13,-1.91,0.54,0.22,
3.357,-3.00,-1.21,1.43,-1.91,0.54,0.22,
3.358,-2.82,-1.19,1.84,-1.91,0.54,0.22,
3.358,-2.82,-1.19,1.84,-1.78,0.51,0.26,
3.359,-2.82,-1.19,1.84,-1.65,0.47,0.30,
3.359,-2.82,-1.19,1.84,-1.52,0.44,0.34,
3.36,-2.82,-1.19,1.84,-1.38,0.42,0.37,
3.36,-2.70,-1.23,2.27,-1.38,0.42,0.37,
3.361,-2.70,-1.23,2.27,-1.24,0.41,0.40,
3.361,-2.70,-1.23,2.27,-1.10,0.39,0.43,
3.362,-2.53,-1.28,2.60,-1.10,0.39,0.43,
3.362,-2.53,-1.28,2.60,-0.95,0.38,0.44,
3.362,-2.53,-1.28,2.60,-0.80,0.36,0.46,
3.372,-2.41,-1.32,2.89,-0.80,0.36,0.46,
3.373,-2.41,-1.32,2.89,-0.66,0.35,0.47,
3.373,-2.41,-1.32,2.89,-0.52,0.34,0.47,
3.373,-2.32,-1.31,2.99,-0.52,0.34,0.47,
3.374,-2.32,-1.31,2.99,-0.38,0.33,0.47,
3.374,-2.32,-1.31,2.99,-0.24,0.31,0.47,
3.375,-2.25,-1.30,2.80,-0.24,0.31,0.47,
3.375,-2.25,-1.30,2.80,-0.11,0.29,0.46,
3.377,-2.25,-1.30,2.80,0.01,0.27,0.45,
3.38,-2.27,-1.22,2.44,0.01,0.27,0.45,
3.38,-2.27,-1.22,2.44,0.13,0.24,0.43,
3.382,-2.27,-1.22,2.44,0.24,0.20,0.41,
3.384,-2.42,-1.13,2.05,0.24,0.20,0.41,
3.385,-2.42,-1.13,2.05,0.33,0.15,0.40,
3.387,-2.42,-1.13,2.05,0.43,0.10,0.38,
3.39,-2.60,-1.02,1.55,0.43,0.10,0.38,
3.391,-2.60,-1.02,1.55,0.51,0.04,0.36,
3.392,-2.60,-1.02,1.55,0.59,-0.02,0.34,
3.395,-2.77,-0.90,1.17,0.59,-0.02,0.34,
3.396,-2.77,-0.90,1.17,0.65,-0.08,0.32,
3.397,-2.77,-0.90,1.17,0.71,-0.15,0.30,
3.399,-2.89,-0.82,0.88,0.71,-0.15,0.30,
3.4,-2.89,-0.82,0.88,0.76,-0.22,0.29,
3.402,-2.89,-0.82,0.88,0.80,-0.28,0.28,
3.407,-3.01,-0.73,0.65,0.80,-0.28,0.28,
3.407,-3.01,-0.73,0.65,0.83,-0.34,0.27,
3.408,-3.01,-0.73,0.65,0.85,-0.41,0.26,
3.411,-3.05,-0.61,0.49,0.85,-0.41,0.26,
3.411,-3.05,-0.61,0.49,0.87,-0.46,0.25,
3.412,-3.05,-0.61,0.49,0.88,-0.51,0.25,
3.414,-3.00,-0.46,0.32,0.88,-0.51,0.25,
3.415,-3.00,-0.46,0.32,0.88,-0.56,0.25,
3.417,-3.00,-0.46,0.32,0.88,-0.61,0.25,
3.42,-2.90,-0.23,0.16,0.88,-0.61,0.25,
3.421,-2.90,-0.23,0.16,0.87,-0.65,0.25,
3.425,-2.90,-0.23,0.16,0.86,-0.68,0.25,
3.425,-2.90,-0.23,0.16,0.84,-0.71,0.25,
3.425,-2.71,0.08,0.04,0.84,-0.71,0.25,
3.427,-2.71,0.08,0.04,0.82,-0.74,0.25,
3.429,-2.37,0.42,0.09,0.82,-0.74,0.25,
3.429,-2.37,0.42,0.09,0.80,-0.76,0.26,
3.431,-2.37,0.42,0.09,0.79,-0.77,0.25,
3.435,-1.98,0.76,0.34,0.79,-0.77,0.25,
3.435,-1.98,0.76,0.34,0.76,-0.78,0.25,
3.436,-1.98,0.76,0.34,0.74,-0.78,0.25,
3.44,-1.98,0.76,0.34,0.72,-0.76,0.24,
3.441,-1.56,1.12,0.67,0.72,-0.76,0.24,
3.442,-1.56,1.12,0.67,0.70,-0.74,0.23,
3.446,-1.56,1.12,0.67,0.68,-0.71,0.21,
3.447,-1.12,1.37,1.00,0.68,-0.71,0.21,
3.447,-1.12,1.37,1.00,0.66,-0.68,0.20,
3.449,-0.67,1.54,1.23,0.66,-0.68,0.20,
3.449,-0.67,1.54,1.23,0.64,-0.64,0.18,
3.453,-0.67,1.54,1.23,0.62,-0.60,0.16,
3.458,-0.26,1.66,1.39,0.62,-0.60,0.16,
3.459,-0.26,1.66,1.39,0.60,-0.55,0.14,
3.459,-0.26,1.66,1.39,0.58,-0.51,0.12,
3.46,0.11,1.78,1.40,0.58,-0.51,0.12,
3.461,0.11,1.78,1.40,0.56,-0.46,0.09,
3.462,0.11,1.78,1.40,0.54,-0.42,0.07,
3.47,0.42,1.81,1.45,0.54,-0.42,0.07,
3.471,0.42,1.81,1.45,0.52,-0.38,0.04,
3.472,0.42,1.81,1.45,0.50,-0.33,0.01,
3.472,0.77,1.78,1.63,0.50,-0.33,0.01,
3.473,0.77,1.78,1.63,0.48,-0.29,-0.02,
3.474,0.77,1.78,1.63,0.45,-0.24,-0.04,
3.498,0.77,1.78,1.63,0.43,-0.19,-0.07,
3.498,1.07,1.60,1.80,0.43,-0.19,-0.07,
3.499,1.07,1.60,1.80,0.40,-0.14,-0.09,
3.499,1.35,1.43,1.83,0.40,-0.14,-0.09,
3.5,1.35,1.43,1.83,0.37,-0.09,-0.11,
3.5,1.35,1.43,1.83,0.34,-0.04,-0.13,
3.501,1.55,1.25,1.62,0.34,-0.04,-0.13,
3.501,1.55,1.25,1.62,0.31,-0.00,-0.14,
3.502,1.55,1.25,1.62,0.27,0.03,-0.15,
3.502,1.72,1.09,1.01,0.27,0.03,-0.15,
3.503,1.72,1.09,1.01,0.23,0.05,-0.16,
3.503,1.72,1.09,1.01,0.18,0.06,-0.17,
3.503,1.84,1.09,0.25,0.18,0.06,-0.17,
3.504,1.84,1.09,0.25,0.13,0.06,-0.17,
3.504,1.84,1.09,0.25,0.08,0.05,-0.17,
3.505,1.89,1.07,-0.48,0.08,0.05,-0.17,
3.505,1.89,1.07,-0.48,0.02,0.04,-0.16,
3.506,1.89,1.07,-0.48,-0.03,0.02,-0.16,
3.506,1.93,1.02,-1.09,-0.03,0.02,-0.16,
3.507,1.93,1.02,-1.09,-0.10,-0.01,-0.15,
3.507,1.93,1.02,-1.09,-0.17,-0.04,-0.14,
3.512,1.92,0.86,-1.55,-0.17,-0.04,-0.14,
3.514,1.92,0.86,-1.55,-0.25,-0.06,-0.12,
3.515,1.92,0.86,-1.55,-0.33,-0.09,-0.11,
3.515,1.89,0.61,-1.89,-0.33,-0.09,-0.11,
3.516,1.89,0.61,-1.89,-0.41,-0.11,-0.09,
3.516,1.89,0.61,-1.89,-0.51,-0.12,-0.06,
3.519,1.90,0.32,-1.98,-0.51,-0.12,-0.06,
3.52,1.90,0.32,-1.98,-0.60,-0.12,-0.04,
3.523,1.90,0.32,-1.98,-0.70,-0.12,-0.02,
3.526,1.93,0.08,-1.74,-0.70,-0.12,-0.02,
3.526,1.93,0.08,-1.74,-0.79,-0.10,0.01,
3.527,1.93,0.08,-1.74,-0.89,-0.08,0.03,
3.529,2.06,-0.01,-1.11,-0.89,-0.08,0.03,
3.529,2.06,-0.01,-1.11,-0.98,-0.05,0.05,
3.531,2.06,-0.01,-1.11,-1.06,0.00,0.06,
3.534,2.20,-0.04,-0.22,-1.06,0.00,0.06,
3.534,2.20,-0.04,-0.22,-1.13,0.06,0.07,
3.536,2.20,-0.04,-0.22,-1.20,0.12,0.08,
3.54,2.28,0.12,0.70,-1.20,0.12,0.08,
3.541,2.28,0.12,0.70,-1.25,0.18,0.08,
3.543,2.28,0.12,0.70,-1.29,0.23,0.07,
3.544,2.24,0.40,1.49,-1.29,0.23,0.07,
3.545,2.24,0.40,1.49,-1.32,0.29,0.06,
3.546,2.24,0.40,1.49,-1.33,0.33,0.04,
3.549,2.06,0.81,2.42,-1.33,0.33,0.04,
3.55,2.06,0.81,2.42,-1.33,0.38,0.01,
3.551,2.06,0.81,2.42,-1.31,0.41,-0.02,
3.555,1.82,1.26,3.31,-1.31,0.41,-0.02,
3.558,1.82,1.26,3.31,-1.27,0.44,-0.05,
3.559,1.82,1.26,3.31,-1.22,0.46,-0.09,
3.559,1.45,1.64,4.10,-1.22,0.46,-0.09,
3.559,1.45,1.64,4.10,-1.16,0.46,-0.13,
3.562,1.45,1.64,4.10,-1.07,0.46,-0.18,
3.568,1.45,1.64,4.10,-0.98,0.45,-0.23,
3.569,1.45,1.64,4.10,-0.87,0.43,-0.28,
3.57,1.45,1.64,4.10,-0.76,0.40,-0.33,
3.57,1.02,1.97,4.91,-0.76,0.40,-0.33,
3.571,0.56,2.20,5.75,-0.76,0.40,-0.33,
3.575,0.56,2.20,5.75,-0.62,0.37,-0.38,
3.575,0.23,2.21,6.94,-0.62,0.37,-0.38,
3.576,0.23,2.21,6.94,-0.49,0.34,-0.42,
3.576,0.23,2.21,6.94,-0.34,0.31,-0.47,
3.581,0.24,1.87,8.42,-0.34,0.31,-0.47,
3.581,0.24,1.87,8.42,-0.19,0.30,-0.52,
3.582,0.24,1.87,8.42,-0.04,0.30,-0.56,
3.583,0.24,1.87,8.42,0.10,0.29,-0.59,
3.583,0.81,1.07,8.91,0.10,0.29,-0.59,
3.586,0.81,1.07,8.91,0.22,0.26,-0.62,
3.59,0.81,1.07,8.91,0.33,0.19,-0.65,
3.591,1.69,0.07,6.95,0.33,0.19,-0.65,
3.592,1.69,0.07,6.95,0.42,0.07,-0.67,
3.594,2.57,-0.70,3.41,0.42,0.07,-0.67,
3.595,2.57,-0.70,3.41,0.49,-0.11,-0.67,
3.597,2.57,-0.70,3.41,0.54,-0.32,-0.67,
3.599,3.21,-1.10,0.08,0.54,-0.32,-0.67,
3.6,3.21,-1.10,0.08,0.57,-0.56,-0.66,
3.601,3.21,-1.10,0.08,0.59,-0.82,-0.65,
3.603,3.76,-1.38,-2.15,0.59,-0.82,-0.65,
3.603,3.76,-1.38,-2.15,0.60,-1.09,-0.62,
3.606,3.76,-1.38,-2.15,0.61,-1.35,-0.57,
3.608,4.38,-1.94,-2.78,0.61,-1.35,-0.57,
3.609,4.38,-1.94,-2.78,0.60,-1.58,-0.51,
3.611,4.38,-1.94,-2.78,0.59,-1.75,-0.43,
3.613,4.38,-1.94,-2.78,0.57,-1.86,-0.33,
3.613,5.02,-2.96,-1.79,0.57,-1.86,-0.33,
3.616,5.02,-2.96,-1.79,0.55,-1.88,-0.21,
3.618,5.49,-3.91,-0.23,0.55,-1.88,-0.21,
3.619,5.49,-3.91,-0.23,0.54,-1.82,-0.08,
3.621,5.49,-3.91,-0.23,0.52,-1.68,0.06,
3.623,5.49,-3.91,-0.23,0.50,-1.46,0.22,
3.623,5.44,-4.50,1.02,0.50,-1.46,0.22,
3.626,5.44,-4.50,1.02,0.48,-1.18,0.38,
3.628,4.88,-4.47,1.53,0.48,-1.18,0.38,
3.629,4.88,-4.47,1.53,0.46,-0.84,0.53,
3.63,4.88,-4.47,1.53,0.44,-0.48,0.68,
3.633,4.08,-3.79,1.00,0.44,-0.48,0.68,
3.633,4.08,-3.79,1.00,0.42,-0.10,0.81,
3.635,4.08,-3.79,1.00,0.41,0.29,0.93,
3.639,3.22,-2.79,0.12,0.41,0.29,0.93,
3.66,3.22,-2.79,0.12,0.39,0.69,1.03,
3.66,3.22,-2.79,0.12,0.39,1.07,1.10,
3.661,2.76,-1.63,-0.72,0.39,1.07,1.10,
3.661,2.76,-1.63,-0.72,0.39,1.41,1.15,
3.662,2.76,-1.63,-0.72,0.39,1.72,1.17,
3.662,2.69,-0.59,-0.95,0.39,1.72,1.17,
3.663,2.69,-0.59,-0.95,0.40,1.99,1.17,
3.663,2.69,-0.59,-0.95,0.42,2.22,1.13,
3.664,2.46,0.10,-0.27,0.42,2.22,1.13,
3.664,2.46,0.10,-0.27,0.43,2.38,1.09,
3.665,2.46,0.10,-0.27,0.46,2.47,1.01,
3.665,1.76,0.41,0.77,0.46,2.47,1.01,
3.666,1.76,0.41,0.77,0.48,2.51,0.93,
3.666,1.76,0.41,0.77,0.51,2.50,0.85,
3.666,1.76,0.41,0.77,0.53,2.43,0.76,
3.667,0.68,0.48,1.64,0.53,2.43,0.76,
3.667,0.68,0.48,1.64,0.56,2.30,0.67,
3.668,-0.54,0.40,1.29,0.56,2.30,0.67,
3.668,-0.54,0.40,1.29,0.58,2.13,0.59,
3.67,-0.54,0.40,1.29,0.60,1.91,0.51,
3.675,-1.77,0.42,0.45,0.60,1.91,0.51,
3.676,-1.77,0.42,0.45,0.61,1.65,0.43,
3.676,-1.77,0.42,0.45,0.61,1.35,0.36,
3.678,-2.91,0.52,-0.75,0.61,1.35,0.36,
3.679,-2.91,0.52,-0.75,0.61,1.02,0.30,
3.682,-2.91,0.52,-0.75,0.60,0.69,0.24,
3.682,-3.83,0.73,-1.91,0.60,0.69,0.24,
3.683,-3.83,0.73,-1.91,0.59,0.35,0.19,
3.685,-3.83,0.73,-1.91,0.56,0.03,0.14,
3.69,-3.83,0.73,-1.91,0.53,-0.27,0.10,
3.693,-4.41,0.88,-2.68,0.53,-0.27,0.10,
3.694,-4.41,0.88,-2.68,0.49,-0.53,0.07,
3.694,-4.53,0.84,-3.01,0.49,-0.53,0.07,
3.696,-4.53,0.84,-3.01,0.44,-0.75,0.05,
3.696,-4.53,0.84,-3.01,0.39,-0.94,0.03,
3.697,-4.53,0.84,-3.01,0.32,-1.08,0.02,
3.698,-4.38,0.50,-3.15,0.32,-1.08,0.02,
3.7,-4.38,0.50,-3.15,0.25,-1.20,0.02,
3.702,-4.38,0.50,-3.15,0.18,-1.28,0.03,
3.703,-3.95,-0.02,-3.23,0.18,-1.28,0.03,
3.709,-3.95,-0.02,-3.23,0.09,-1.33,0.05,
3.711,-3.30,-0.57,-3.46,0.09,-1.33,0.05,
3.711,-3.30,-0.57,-3.46,-0.00,-1.35,0.07,
3.712,-3.30,-0.57,-3.46,-0.10,-1.35,0.10,
3.713,-2.56,-1.13,-3.88,-0.10,-1.35,0.10,
3.713,-2.56,-1.13,-3.88,-0.21,-1.34,0.14,
3.715,-2.56,-1.13,-3.88,-0.32,-1.31,0.18,
3.718,-1.66,-1.68,-4.44,-0.32,-1.31,0.18,
3.718,-1.66,-1.68,-4.44,-0.42,-1.27,0.22,
3.72,-1.66,-1.68,-4.44,-0.54,-1.22,0.26,
3.725,-1.66,-1.68,-4.44,-0.66,-1.16,0.31,
3.726,-0.65,-2.17,-4.98,-0.66,-1.16,0.31,
3.727,-0.65,-2.17,-4.98,-0.78,-1.09,0.36,
3.728,-0.65,-2.17,-4.98,-0.91,-1.03,0.40,
3.729,0.44,-2.57,-5.32,-0.91,-1.03,0.40,
3.731,0.44,-2.57,-5.32,-1.02,-0.95,0.45,
3.733,1.55,-2.74,-5.48,-1.02,-0.95,0.45,
3.733,1.55,-2.74,-5.48,-1.14,-0.88,0.49,
3.736,1.55,-2.74,-5.48,-1.25,-0.79,0.52,
3.739,2.61,-2.76,-5.16,-1.25,-0.79,0.52,
3.739,2.61,-2.76,-5.16,-1.35,-0.70,0.55,
3.743,2.61,-2.76,-5.16,-1.44,-0.59,0.57,
3.743,2.61,-2.76,-5.16,-1.53,-0.47,0.59,
3.744,3.45,-2.66,-4.31,-1.53,-0.47,0.59,
3.745,3.45,-2.66,-4.31,-1.59,-0.33,0.60,
3.749,4.02,-2.48,-3.14,-1.59,-0.33,0.60,
3.749,4.02,-2.48,-3.14,-1.64,-0.17,0.60,
3.75,4.02,-2.48,-3.14,-1.68,0.01,0.60,
3.752,4.22,-2.21,-1.91,-1.68,0.01,0.60,
3.753,4.22,-2.21,-1.91,-1.71,0.19,0.59,
3.756,4.22,-2.21,-1.91,-1.72,0.39,0.57,
3.758,4.07,-1.95,-0.90,-1.72,0.39,0.57,
3.758,4.07,-1.95,-0.90,-1.71,0.58,0.55,
3.76,4.07,-1.95,-0.90,-1.69,0.77,0.52,
3.762,4.07,-1.95,-0.90,-1.66,0.95,0.48,
3.763,3.59,-1.77,-0.28,-1.66,0.95,0.48,
3.765,3.59,-1.77,-0.28,-1.62,1.12,0.44,
3.768,2.81,-1.60,0.10,-1.62,1.12,0.44,
3.768,2.81,-1.60,0.10,-1.57,1.25,0.40,
3.77,2.81,-1.60,0.10,-1.51,1.34,0.35,
3.773,1.76,-1.45,0.03,-1.51,1.34,0.35,
3.774,1.76,-1.45,0.03,-1.44,1.40,0.31,
3.775,1.76,-1.45,0.03,-1.36,1.41,0.26,
3.778,1.76,-1.45,0.03,-1.29,1.39,0.21,
3.778,0.56,-1.42,-0.09,-1.29,1.39,0.21,
3.78,0.56,-1.42,-0.09,-1.20,1.33,0.16,
3.782,-0.69,-1.46,-0.16,-1.20,1.33,0.16,
3.783,-0.69,-1.46,-0.16,-1.11,1.23,0.12,
3.785,-0.69,-1.46,-0.16,-1.02,1.10,0.08,
3.789,-1.83,-1.48,-0.12,-1.02,1.10,0.08,
3.79,-1.83,-1.48,-0.12,-0.92,0.96,0.04,
3.79,-1.83,-1.48,-0.12,-0.82,0.80,0.01,
3.793,-2.84,-1.49,0.17,-0.82,0.80,0.01,
3.794,-2.84,-1.49,0.17,-0.72,0.62,-0.02,
3.8,-2.84,-1.49,0.17,-0.61,0.45,-0.05,
3.801,-3.58,-1.46,0.40,-0.61,0.45,-0.05,
3.801,-3.58,-1.46,0.40,-0.51,0.26,-0.08,
3.801,-3.58,-1.46,0.40,-0.40,0.09,-0.10,
3.807,-4.10,-1.36,0.56,-0.40,0.09,-0.10,
3.808,-4.10,-1.36,0.56,-0.29,-0.09,-0.11,
3.838,-4.10,-1.36,0.56,-0.18,-0.25,-0.13,
3.839,-4.41,-1.24,0.58,-0.18,-0.25,-0.13,
3.84,-4.41,-1.24,0.58,-0.08,-0.39,-0.14,
3.84,-4.53,-1.21,0.38,-0.08,-0.39,-0.14,
3.841,-4.53,-1.21,0.38,0.03,-0.52,-0.15,
3.841,-4.53,-1.21,0.38,0.12,-0.64,-0.15,
3.842,-4.53,-1.21,0.38,0.21,-0.74,-0.14,
3.843,-4.38,-1.32,0.10,0.21,-0.74,-0.14,
3.843,-4.38,-1.32,0.10,0.30,-0.83,-0.14,
3.844,-4.38,-1.32,0.10,0.37,-0.90,-0.13,
3.844,-4.38,-1.32,0.10,0.44,-0.96,-0.11,
3.845,-4.03,-1.49,-0.25,0.44,-0.96,-0.11,
3.845,-4.03,-1.49,-0.25,0.50,-1.01,-0.10,
3.846,-3.57,-1.76,-0.62,0.50,-1.01,-0.10,
3.847,-3.57,-1.76,-0.62,0.55,-1.05,-0.08,
3.848,-3.57,-1.76,-0.62,0.59,-1.08,-0.06,
3.848,-3.04,-2.00,-0.96,0.59,-1.08,-0.06,
3.849,-3.04,-2.00,-0.96,0.62,-1.09,-0.03,
3.85,-3.04,-2.00,-0.96,0.65,-1.10,0.00,
3.851,-2.48,-2.13,-1.20,0.65,-1.10,0.00,
3.851,-2.48,-2.13,-1.20,0.67,-1.10,0.03,
3.851,-2.48,-2.13,-1.20,0.69,-1.09,0.06,
3.852,-2.48,-2.13,-1.20,0.69,-1.08,0.09,
3.853,-1.91,-2.17,-1.46,0.69,-1.08,0.09,
3.853,-1.91,-2.17,-1.46,0.70,-1.05,0.13,
3.854,-1.35,-2.17,-1.62,0.70,-1.05,0.13,
3.855,-1.35,-2.17,-1.62,0.70,-1.02,0.16,
3.856,-1.35,-2.17,-1.62,0.69,-0.99,0.19,
3.857,-0.86,-2.05,-1.63,0.69,-0.99,0.19,
3.858,-0.86,-2.05,-1.63,0.69,-0.94,0.22,
3.858,-0.86,-2.05,-1.63,0.68,-0.89,0.25,
3.859,-0.42,-1.91,-1.53,0.68,-0.89,0.25,
3.859,-0.42,-1.91,-1.53,0.68,-0.84,0.28,
3.859,-0.42,-1.91,-1.53,0.67,-0.78,0.30,
3.862,-0.06,-1.66,-1.38,0.67,-0.78,0.30,
3.863,-0.06,-1.66,-1.38,0.66,-0.71,0.33,
3.865,-0.06,-1.66,-1.38,0.65,-0.65,0.35,
3.867,0.16,-1.39,-1.44,0.65,-0.65,0.35,
3.868,0.16,-1.39,-1.44,0.64,-0.59,0.37,
3.869,0.16,-1.39,-1.44,0.63,-0.53,0.38,
3.875,0.16,-1.39,-1.44,0.63,-0.48,0.40,
3.878,0.21,-1.08,-1.50,0.63,-0.48,0.40,
3.879,0.21,-1.08,-1.50,0.62,-0.43,0.41,
3.879,0.21,-1.08,-1.50,0.62,-0.38,0.43,
3.88,0.15,-0.81,-1.37,0.62,-0.38,0.43,
3.881,0.15,-0.81,-1.37,0.61,-0.33,0.44,
3.882,0.04,-0.64,-0.99,0.61,-0.33,0.44,
3.882,0.04,-0.64,-0.99,0.61,-0.27,0.45,
3.884,0.04,-0.64,-0.99,0.61,-0.22,0.46,
3.887,-0.12,-0.51,-0.57,0.61,-0.22,0.46,
3.888,-0.12,-0.51,-0.57,0.60,-0.16,0.47,
3.891,-0.12,-0.51,-0.57,0.61,-0.11,0.47,
3.892,-0.32,-0.35,-0.36,0.61,-0.11,0.47,
3.892,-0.32,-0.35,-0.36,0.61,-0.05,0.48,
3.895,-0.32,-0.35,-0.36,0.61,-0.00,0.49,
3.897,-0.65,-0.24,-0.39,0.61,-0.00,0.49,
3.897,-0.65,-0.24,-0.39,0.61,0.04,0.49,
3.9,-0.65,-0.24,-0.39,0.61,0.07,0.50,
3.903,-0.96,-0.08,-0.59,0.61,0.07,0.50,
3.903,-0.96,-0.08,-0.59,0.61,0.10,0.50,
3.908,-0.96,-0.08,-0.59,0.60,0.11,0.51,
3.909,-1.28,0.04,-0.79,0.60,0.11,0.51,
3.91,-1.28,0.04,-0.79,0.60,0.12,0.51,
3.912,-1.28,0.04,-0.79,0.60,0.11,0.51,
3.913,-1.54,0.14,-0.92,0.60,0.11,0.51,
3.914,-1.54,0.14,-0.92,0.59,0.11,0.51,
3.916,-1.54,0.14,-0.92,0.59,0.10,0.51,
3.917,-1.68,0.19,-0.87,0.59,0.10,0.51,
3.917,-1.68,0.19,-0.87,0.58,0.09,0.51,
3.919,-1.68,0.19,-0.87,0.58,0.08,0.50,
3.925,-1.71,0.31,-0.93,0.58,0.08,0.50,
3.925,-1.71,0.31,-0.93,0.57,0.05,0.50,
3.926,-1.71,0.31,-0.93,0.57,0.04,0.50,
3.93,-1.71,0.31,-0.93,0.56,0.01,0.49,
3.931,-1.71,0.31,-0.93,0.56,-0.02,0.47,
3.931,-1.63,0.52,-1.01,0.56,-0.02,0.47,
3.932,-1.52,0.71,-1.04,0.56,-0.02,0.47,
3.932,-1.52,0.71,-1.04,0.55,-0.05,0.46,
3.934,-1.52,0.71,-1.04,0.55,-0.08,0.45,
3.936,-1.27,0.90,-0.92,0.55,-0.08,0.45,
3.937,-1.27,0.90,-0.92,0.55,-0.11,0.43,
3.94,-1.27,0.90,-0.92,0.55,-0.14,0.41,
3.942,-0.95,1.06,-0.68,0.55,-0.14,0.41,
3.942,-0.95,1.06,-0.68,0.55,-0.16,0.39,
3.944,-0.95,1.06,-0.68,0.54,-0.18,0.37,
3.946,-0.75,1.21,-0.51,0.54,-0.18,0.37,
3.946,-0.75,1.21,-0.51,0.54,-0.20,0.35,
3.949,-0.75,1.21,-0.51,0.54,-0.21,0.33,
3.951,-0.56,1.29,-0.47,0.54,-0.21,0.33,
3.952,-0.56,1.29,-0.47,0.55,-0.21,0.31,
3.955,-0.56,1.29,-0.47,0.54,-0.22,0.29,
3.957,-0.45,1.28,-0.64,0.54,-0.22,0.29,
3.957,-0.45,1.28,-0.64,0.54,-0.23,0.28,
3.959,-0.45,1.28,-0.64,0.53,-0.23,0.26,
3.961,-0.39,1.20,-0.89,0.53,-0.23,0.26,
3.962,-0.39,1.20,-0.89,0.52,-0.23,0.25,
3.963,-0.39,1.20,-0.89,0.50,-0.24,0.24,
3.966,-0.36,1.02,-0.99,0.50,-0.24,0.24,
3.966,-0.36,1.02,-0.99,0.49,-0.24,0.24,
3.968,-0.36,1.02,-0.99,0.48,-0.23,0.24,
3.98,-0.36,1.02,-0.99,0.45,-0.23,0.24,
3.98,-0.29,0.88,-1.06,0.45,-0.23,0.24,
3.98,-0.29,0.88,-1.06,0.43,-0.22,0.24,
3.981,-0.20,0.77,-1.11,0.43,-0.22,0.24,
3.981,-0.20,0.77,-1.11,0.41,-0.20,0.25,
3.981,-0.20,0.77,-1.11,0.39,-0.18,0.26,
3.981,-0.04,0.64,-1.13,0.39,-0.18,0.26,
3.981,-0.04,0.64,-1.13,0.37,-0.16,0.27,
3.984,-0.04,0.64,-1.13,0.34,-0.14,0.28,
3.986,0.10,0.55,-1.04,0.34,-0.14,0.28,
3.987,0.10,0.55,-1.04,0.32,-0.11,0.30,
3.989,0.10,0.55,-1.04,0.29,-0.08,0.31,
3.992,0.25,0.51,-0.90,0.29,-0.08,0.31,
3.992,0.25,0.51,-0.90,0.27,-0.05,0.33,
3.994,0.25,0.51,-0.90,0.25,-0.01,0.35,
3.996,0.47,0.49,-0.73,0.25,-0.01,0.35,
3.997,0.47,0.49,-0.73,0.23,0.03,0.36,
3.999,0.47,0.49,-0.73,0.21,0.07,0.38,
4.001,0.66,0.49,-0.63,0.21,0.07,0.38,
4.002,0.66,0.49,-0.63,0.19,0.11,0.39,
4.005,0.66,0.49,-0.63,0.18,0.15,0.41,
4.008,0.66,0.49,-0.63,0.17,0.19,0.42,
4.009,0.85,0.56,-0.49,0.17,0.19,0.42,
4.011,0.85,0.56,-0.49,0.16,0.23,0.43,
4.012,0.93,0.70,-0.33,0.16,0.23,0.43,
4.012,0.93,0.70,-0.33,0.15,0.27,0.44,
4.014,0.93,0.70,-0.33,0.15,0.30,0.44,
4.016,0.88,0.83,-0.22,0.15,0.30,0.44,
4.017,0.88,0.83,-0.22,0.15,0.35,0.45,
4.018,0.88,0.83,-0.22,0.16,0.38,0.45,
4.022,0.78,0.96,-0.07,0.16,0.38,0.45,
4.023,0.78,0.96,-0.07,0.17,0.42,0.45,
4.023,0.78,0.96,-0.07,0.17,0.46,0.45,
4.026,0.57,1.11,0.06,0.17,0.46,0.45,
4.027,0.57,1.11,0.06,0.18,0.49,0.45,
4.037,0.57,1.11,0.06,0.20,0.53,0.44,
4.038,0.57,1.11,0.06,0.22,0.55,0.44,
4.038,0.27,1.23,0.03,0.22,0.55,0.44,
4.038,0.27,1.23,0.03,0.24,0.57,0.43,
4.038,0.27,1.23,0.03,0.25,0.59,0.42,
4.038,0.06,1.39,0.01,0.25,0.59,0.42,
4.043,0.06,1.39,0.01,0.28,0.61,0.41,
4.043,0.06,1.39,0.01,0.30,0.62,0.39,
4.043,-0.13,1.46,0.24,0.30,0.62,0.39,
4.044,-0.13,1.46,0.24,0.33,0.62,0.38,
4.047,-0.13,1.46,0.24,0.36,0.62,0.36,
4.047,-0.24,1.52,0.47,0.36,0.62,0.36,
4.048,-0.24,1.52,0.47,0.38,0.61,0.35,
4.051,-0.24,1.52,0.47,0.41,0.59,0.33,
4.051,-0.32,1.52,0.43,0.41,0.59,0.33,
4.053,-0.32,1.52,0.43,0.43,0.56,0.32,
4.056,-0.32,1.52,0.43,0.46,0.52,0.30,
4.056,-0.41,1.53,0.27,0.46,0.52,0.30,
4.059,-0.41,1.53,0.27,0.49,0.48,0.29,
4.061,-0.45,1.52,0.04,0.49,0.48,0.29,
4.062,-0.45,1.52,0.04,0.51,0.43,0.27,
4.063,-0.45,1.52,0.04,0.53,0.37,0.26,
4.066,-0.42,1.48,-0.12,0.53,0.37,0.26,
4.066,-0.42,1.48,-0.12,0.55,0.31,0.24,
4.068,-0.42,1.48,-0.12,0.56,0.25,0.23,
4.075,-0.39,1.43,-0.11,0.56,0.25,0.23,
4.075,-0.39,1.43,-0.11,0.57,0.20,0.22,
4.076,-0.39,1.43,-0.11,0.58,0.15,0.21,
4.078,-0.29,1.34,-0.17,0.58,0.15,0.21,
4.078,-0.29,1.34,-0.17,0.58,0.11,0.20,
4.081,-0.29,1.34,-0.17,0.59,0.07,0.19,
4.083,-0.29,1.34,-0.17,0.59,0.04,0.18,
4.084,-0.21,1.28,-0.36,0.59,0.04,0.18,
4.084,-0.21,1.28,-0.36,0.59,0.01,0.18,
4.086,-0.21,1.28,-0.36,0.58,-0.01,0.17,
4.087,-0.15,1.27,-0.56,0.58,-0.01,0.17,
4.092,-0.15,1.27,-0.56,0.57,-0.04,0.16,
4.093,-0.15,1.27,-0.56,0.56,-0.06,0.16,
4.093,-0.04,1.31,-0.88,0.56,-0.06,0.16,
4.096,-0.04,1.31,-0.88,0.54,-0.08,0.16,
4.097,0.05,1.39,-1.16,0.54,-0.08,0.16,
4.097,0.05,1.39,-1.16,0.53,-0.09,0.16,
4.099,0.05,1.39,-1.16,0.51,-0.10,0.16,
4.102,0.10,1.56,-1.43,0.51,-0.10,0.16,
4.103,0.10,1.56,-1.43,0.49,-0.12,0.16,
4.103,0.10,1.56,-1.43,0.47,-0.14,0.16,
4.106,0.18,1.79,-1.75,0.47,-0.14,0.16,
4.107,0.18,1.79,-1.75,0.44,-0.16,0.16,
4.113,0.18,1.79,-1.75,0.42,-0.17,0.15,
4.113,0.18,1.79,-1.75,0.40,-0.20,0.15,
4.114,0.27,2.03,-2.06,0.40,-0.20,0.15,
4.115,0.27,2.03,-2.06,0.37,-0.22,0.14,
4.116,0.37,2.26,-2.12,0.37,-0.22,0.14,
4.116,0.37,2.26,-2.12,0.35,-0.24,0.14,
4.119,0.37,2.26,-2.12,0.33,-0.26,0.14,
4.123,0.37,2.26,-2.12,0.30,-0.26,0.13,
4.124,0.46,2.46,-1.82,0.30,-0.26,0.13,
4.124,0.46,2.46,-1.82,0.28,-0.26,0.13,
4.126,0.61,2.58,-1.26,0.28,-0.26,0.13,
4.127,0.61,2.58,-1.26,0.26,-0.24,0.12,
4.129,0.61,2.58,-1.26,0.24,-0.22,0.11,
4.131,0.61,2.58,-1.26,0.22,-0.19,0.11,
4.132,0.85,2.68,-0.68,0.22,-0.19,0.11,
4.14,1.07,2.73,-0.17,0.22,-0.19,0.11,
4.14,1.07,2.73,-0.17,0.20,-0.14,0.11,
4.16,1.07,2.73,-0.17,0.19,-0.09,0.10,
4.16,1.07,2.73,-0.17,0.17,-0.04,0.09,
4.161,1.23,2.68,0.06,0.17,-0.04,0.09,
4.161,1.23,2.68,0.06,0.14,0.02,0.09,
4.161,1.23,2.68,0.06,0.12,0.06,0.08,
4.162,1.23,2.68,0.06,0.10,0.11,0.07,
4.162,1.29,2.56,-0.11,0.10,0.11,0.07,
4.162,1.29,2.56,-0.11,0.07,0.15,0.07,
4.163,1.24,2.42,-0.59,0.07,0.15,0.07,
4.163,1.24,2.42,-0.59,0.04,0.17,0.07,
4.163,1.24,2.42,-0.59,0.01,0.19,0.07,
4.164,1.11,2.24,-1.17,0.01,0.19,0.07,
4.164,1.11,2.24,-1.17,-0.03,0.20,0.07,
4.165,1.11,2.24,-1.17,-0.07,0.20,0.07,
4.165,0.96,2.01,-1.49,-0.07,0.20,0.07,
4.165,0.96,2.01,-1.49,-0.11,0.19,0.07,
4.166,0.96,2.01,-1.49,-0.15,0.16,0.07,
4.166,0.70,1.76,-1.81,-0.15,0.16,0.07,
4.166,0.70,1.76,-1.81,-0.19,0.14,0.08,
4.17,0.70,1.76,-1.81,-0.23,0.09,0.08,
4.172,0.37,1.51,-2.19,-0.23,0.09,0.08,
4.173,0.37,1.51,-2.19,-0.27,0.03,0.09,
4.173,0.37,1.51,-2.19,-0.31,-0.04,0.09,
4.176,0.07,1.15,-1.98,-0.31,-0.04,0.09,
4.177,0.07,1.15,-1.98,-0.34,-0.12,0.10,
4.178,0.07,1.15,-1.98,-0.37,-0.19,0.10,
4.181,0.07,1.15,-1.98,-0.40,-0.24,0.11,
4.181,0.16,0.68,-0.62,-0.40,-0.24,0.11,
4.183,0.16,0.68,-0.62,-0.42,-0.27,0.12,
4.185,0.59,0.34,1.03,-0.42,-0.27,0.12,
4.186,0.59,0.34,1.03,-0.43,-0.30,0.12,
4.192,0.59,0.34,1.03,-0.44,-0.32,0.12,
4.193,1.16,0.28,1.66,-0.44,-0.32,0.12,
4.193,1.16,0.28,1.66,-0.44,-0.34,0.12,
4.194,1.16,0.28,1.66,-0.44,-0.36,0.10,
4.195,1.68,0.69,0.99,-0.44,-0.36,0.10,
4.195,1.68,0.69,0.99,-0.43,-0.41,0.09,
4.197,1.68,0.69,0.99,-0.42,-0.48,0.06,
4.2,2.01,1.35,-0.25,-0.42,-0.48,0.06,
4.201,2.01,1.35,-0.25,-0.40,-0.57,0.02,
4.206,2.01,1.35,-0.25,-0.38,-0.66,-0.02,
4.207,2.23,1.97,-1.11,-0.38,-0.66,-0.02,
4.207,2.23,1.97,-1.11,-0.36,-0.76,-0.07,
4.209,2.23,1.97,-1.11,-0.33,-0.86,-0.12,
4.212,2.39,2.50,-1.44,-0.33,-0.86,-0.12,
4.213,2.39,2.50,-1.44,-0.31,-0.96,-0.18,
4.214,2.39,2.50,-1.44,-0.28,-1.05,-0.23,
4.215,2.39,2.50,-1.44,-0.25,-1.12,-0.29,
4.216,2.52,2.70,-1.43,-0.25,-1.12,-0.29,
4.218,2.52,2.70,-1.43,-0.23,-1.18,-0.35,
4.22,2.58,2.59,-1.26,-0.23,-1.18,-0.35,
4.221,2.58,2.59,-1.26,-0.21,-1.23,-0.40,
4.226,2.58,2.59,-1.26,-0.19,-1.26,-0.44,
4.227,2.69,2.27,-1.23,-0.19,-1.26,-0.44,
4.227,2.69,2.27,-1.23,-0.18,-1.29,-0.48,
4.228,2.69,2.27,-1.23,-0.18,-1.31,-0.51,
4.231,2.79,1.76,-1.66,-0.18,-1.31,-0.51,
4.231,2.79,1.76,-1.66,-0.19,-1.32,-0.54,
4.233,2.79,1.76,-1.66,-0.21,-1.34,-0.55,
4.235,2.84,1.18,-2.72,-0.21,-1.34,-0.55,
4.235,2.84,1.18,-2.72,-0.24,-1.36,-0.57,
4.238,2.84,1.18,-2.72,-0.28,-1.39,-0.57,
4.24,2.60,0.63,-4.16,-0.28,-1.39,-0.57,
4.24,2.60,0.63,-4.16,-0.33,-1.44,-0.56,
4.244,2.60,0.63,-4.16,-0.40,-1.48,-0.55,
4.245,2.36,0.09,-5.55,-0.40,-1.48,-0.55,
4.245,2.36,0.09,-5.55,-0.47,-1.54,-0.53,
4.247,2.36,0.09,-5.55,-0.56,-1.60,-0.51,
4.25,2.21,-0.38,-6.47,-0.56,-1.60,-0.51,
4.25,2.21,-0.38,-6.47,-0.65,-1.65,-0.49,
4.253,2.21,-0.38,-6.47,-0.75,-1.68,-0.47,
4.257,2.08,-0.83,-6.64,-0.75,-1.68,-0.47,
4.257,2.08,-0.83,-6.64,-0.85,-1.70,-0.44,
4.257,2.08,-0.83,-6.64,-0.96,-1.70,-0.42,
4.261,2.10,-1.31,-6.05,-0.96,-1.70,-0.42,
4.261,2.10,-1.31,-6.05,-1.07,-1.66,-0.39,
4.263,2.10,-1.31,-6.05,-1.18,-1.59,-0.37,
4.265,2.11,-1.87,-4.87,-1.18,-1.59,-0.37,
4.266,2.11,-1.87,-4.87,-1.28,-1.49,-0.35,
4.267,2.11,-1.87,-4.87,-1.39,-1.37,-0.33,
4.273,2.09,-2.46,-3.59,-1.39,-1.37,-0.33,
4.273,2.09,-2.46,-3.59,-1.49,-1.22,-0.32,
4.274,2.09,-2.46,-3.59,-1.58,-1.05,-0.30,
4.277,2.10,-3.14,-2.28,-1.58,-1.05,-0.30,
4.278,2.10,-3.14,-2.28,-1.68,-0.86,-0.29,
4.278,2.10,-3.14,-2.28,-1.76,-0.66,-0.27,
4.281,2.06,-3.78,-1.13,-1.76,-0.66,-0.27,
4.281,2.06,-3.78,-1.13,-1.83,-0.45,-0.26,
4.283,2.06,-3.78,-1.13,-1.90,-0.23,-0.25,
4.285,1.98,-4.37,-0.26,-1.90,-0.23,-0.25,
4.286,1.98,-4.37,-0.26,-1.95,-0.03,-0.24,
4.29,1.98,-4.37,-0.26,-2.00,0.17,-0.24,
4.292,1.84,-4.87,0.34,-2.00,0.17,-0.24,
4.293,1.84,-4.87,0.34,-2.03,0.35,-0.23,
4.293,1.84,-4.87,0.34,-2.06,0.52,-0.23,
4.296,1.54,-5.29,0.57,-2.06,0.52,-0.23,
4.297,1.54,-5.29,0.57,-2.08,0.66,-0.24,
4.297,1.54,-5.29,0.57,-2.08,0.78,-0.24,
4.3,1.26,-5.56,0.86,-2.08,0.78,-0.24,
4.301,1.26,-5.56,0.86,-2.07,0.87,-0.25,
4.326,1.26,-5.56,0.86,-2.05,0.95,-0.26,
4.327,1.07,-5.79,1.67,-2.05,0.95,-0.26,
4.328,1.07,-5.79,1.67,-2.02,1.00,-0.28,
4.328,1.07,-5.79,1.67,-1.97,1.06,-0.30,
4.328,0.94,-5.91,2.96,-1.97,1.06,-0.30,
4.329,0.94,-5.91,2.96,-1.91,1.10,-0.32,
4.329,0.94,-5.91,2.96,-1.83,1.13,-0.35,
4.33,0.76,-5.96,4.47,-1.83,1.13,-0.35,
4.33,0.76,-5.96,4.47,-1.73,1.15,-0.38,
4.331,0.76,-5.96,4.47,-1.61,1.18,-0.42,
4.331,0.54,-5.91,5.66,-1.61,1.18,-0.42,
4.331,0.54,-5.91,5.66,-1.48,1.18,-0.46,
4.332,0.54,-5.91,5.66,-1.34,1.16,-0.50,
4.332,0.25,-5.68,6.32,-1.34,1.16,-0.50,
4.332,0.25,-5.68,6.32,-1.18,1.13,-0.55,
4.333,0.25,-5.68,6.32,-1.00,1.08,-0.60,
4.333,-0.09,-5.26,6.45,-1.00,1.08,-0.60,
4.334,-0.09,-5.26,6.45,-0.81,1.00,-0.65,
4.334,-0.09,-5.26,6.45,-0.61,0.90,-0.70,
4.334,-0.31,-4.60,6.24,-0.61,0.90,-0.70,
4.335,-0.31,-4.60,6.24,-0.40,0.77,-0.76,
4.344,-0.31,-4.60,6.24,-0.17,0.62,-0.82,
4.345,-0.48,-3.78,5.94,-0.17,0.62,-0.82,
4.346,-0.48,-3.78,5.94,0.07,0.45,-0.88,
4.346,-0.48,-3.78,5.94,0.31,0.27,-0.94,
4.346,-0.48,-3.78,5.94,0.57,0.08,-1.00,
4.347,-0.56,-2.94,5.50,0.57,0.08,-1.00,
4.347,-0.56,-2.94,5.50,0.82,-0.11,-1.06,
4.351,-0.58,-2.15,4.85,0.82,-0.11,-1.06,
4.352,-0.58,-2.15,4.85,1.08,-0.31,-1.12,
4.353,-0.58,-2.15,4.85,1.33,-0.50,-1.17,
4.356,-0.57,-1.61,4.23,1.33,-0.50,-1.17,
4.358,-0.57,-1.61,4.23,1.58,-0.68,-1.22,
4.358,-0.57,-1.61,4.23,1.81,-0.86,-1.27,
4.361,-0.45,-1.19,3.70,1.81,-0.86,-1.27,
4.361,-0.45,-1.19,3.70,2.04,-1.03,-1.31,
4.363,-0.45,-1.19,3.70,2.27,-1.18,-1.35,
4.367,-0.24,-0.98,3.15,2.27,-1.18,-1.35,
4.367,-0.24,-0.98,3.15,2.47,-1.32,-1.39,
4.368,-0.24,-0.98,3.15,2.66,-1.45,-1.41,
4.37,-0.24,-0.98,3.15,2.83,-1.57,-1.44,
4.37,0.05,-0.98,2.61,2.83,-1.57,-1.44,
4.374,0.05,-0.98,2.61,2.99,-1.66,-1.45,
4.375,0.05,-0.98,2.61,3.13,-1.75,-1.46,
4.376,0.45,-0.97,2.12,3.13,-1.75,-1.46,
4.379,0.45,-0.97,2.12,3.25,-1.82,-1.46,
4.379,0.90,-0.99,1.85,3.25,-1.82,-1.46,
4.38,0.90,-0.99,1.85,3.35,-1.86,-1.46,
4.382,0.90,-0.99,1.85,3.43,-1.89,-1.45,
4.385,0.90,-0.99,1.85,3.50,-1.88,-1.42,
4.385,1.24,-1.08,1.65,3.50,-1.88,-1.42,
4.387,1.24,-1.08,1.65,3.54,-1.85,-1.40,
4.39,1.24,-1.08,1.65,3.57,-1.79,-1.36,
4.391,1.52,-1.10,1.42,3.57,-1.79,-1.36,
4.393,1.52,-1.10,1.42,3.57,-1.71,-1.33,
4.395,1.52,-1.10,1.42,3.56,-1.60,-1.29,
4.396,1.82,-0.98,0.94,3.56,-1.60,-1.29,
4.397,1.82,-0.98,0.94,3.52,-1.47,-1.24,
4.4,1.97,-0.77,0.38,3.52,-1.47,-1.24,
4.4,1.97,-0.77,0.38,3.47,-1.32,-1.19,
4.402,1.97,-0.77,0.38,3.40,-1.16,-1.14,
4.406,2.05,-0.44,-0.20,3.40,-1.16,-1.14,
4.407,2.05,-0.44,-0.20,3.31,-0.97,-1.08,
4.407,2.05,-0.44,-0.20,3.21,-0.76,-1.02,
4.41,2.05,-0.44,-0.20,3.09,-0.54,-0.96,
4.411,1.95,-0.13,-0.79,3.09,-0.54,-0.96,
4.413,1.95,-0.13,-0.79,2.95,-0.31,-0.89,
4.416,1.82,0.16,-1.52,2.95,-0.31,-0.89,
4.416,1.82,0.16,-1.52,2.79,-0.07,-0.83,
4.417,1.82,0.16,-1.52,2.63,0.18,-0.76,
4.42,1.65,0.47,-2.25,2.63,0.18,-0.76,
4.42,1.65,0.47,-2.25,2.44,0.43,-0.69,
4.426,1.65,0.47,-2.25,2.25,0.67,-0.62,
4.427,1.65,0.47,-2.25,2.04,0.91,-0.56,
4.427,1.61,0.81,-2.91,2.04,0.91,-0.56,
4.427,1.61,0.81,-2.91,1.82,1.13,-0.50,
4.431,1.61,0.81,-2.91,1.59,1.34,-0.46,
4.431,1.61,0.81,-2.91,1.35,1.53,-0.42,
4.434,1.61,0.81,-2.91,1.09,1.69,-0.38,
4.437,1.65,1.21,-3.73,1.09,1.69,-0.38,
4.437,1.67,1.61,-4.47,1.09,1.69,-0.38,
4.437,1.67,1.61,-4.47,0.83,1.82,-0.37,
4.453,1.59,2.03,-5.02,0.83,1.82,-0.37,
4.455,1.35,2.38,-5.38,0.83,1.82,-0.37,
4.455,0.97,2.63,-5.39,0.83,1.82,-0.37,
4.455,0.97,2.63,-5.39,0.57,1.94,-0.36,
4.456,0.97,2.63,-5.39,0.30,2.03,-0.36,
4.456,0.97,2.63,-5.39,0.03,2.09,-0.37,
4.456,0.97,2.63,-5.39,-0.23,2.14,-0.39,
4.457,0.97,2.63,-5.39,-0.50,2.18,-0.42,
4.457,0.97,2.63,-5.39,-0.77,2.20,-0.46,
4.457,0.97,2.63,-5.39,-1.02,2.22,-0.50,
4.458,0.54,2.61,-5.19,-1.02,2.22,-0.50,
4.458,0.54,2.61,-5.19,-1.27,2.22,-0.54,
4.459,0.54,2.61,-5.19,-1.51,2.22,-0.58,
4.459,-0.03,2.44,-4.97,-1.51,2.22,-0.58,
4.462,-0.03,2.44,-4.97,-1.75,2.21,-0.62,
4.468,-0.82,2.05,-4.71,-1.75,2.21,-0.62,
4.471,-0.82,2.05,-4.71,-1.97,2.20,-0.66,
4.471,-0.82,2.05,-4.71,-2.18,2.18,-0.69,
4.493,-0.82,2.05,-4.71,-2.39,2.16,-0.72,
4.494,-1.63,1.55,-4.60,-2.39,2.16,-0.72,
4.494,-1.63,1.55,-4.60,-2.58,2.13,-0.74,
4.494,-1.63,1.55,-4.60,-2.76,2.10,-0.75,
4.495,-1.63,1.55,-4.60,-2.92,2.06,-0.76,
4.495,-2.48,0.97,-4.54,-2.92,2.06,-0.76,
4.496,-2.48,0.97,-4.54,-3.07,2.02,-0.76,
4.496,-3.24,0.32,-4.32,-3.07,2.02,-0.76,
4.496,-3.24,0.32,-4.32,-3.21,1.98,-0.75,
4.497,-3.24,0.32,-4.32,-3.33,1.94,-0.73,
4.497,-3.94,-0.25,-3.76,-3.33,1.94,-0.73,
4.497,-3.94,-0.25,-3.76,-3.44,1.89,-0.71,
4.498,-4.55,-0.81,-3.27,-3.44,1.89,-0.71,
4.498,-4.55,-0.81,-3.27,-3.53,1.84,-0.67,
4.499,-4.55,-0.81,-3.27,-3.60,1.79,-0.64,
4.499,-5.10,-1.28,-2.93,-3.60,1.79,-0.64,
4.499,-5.10,-1.28,-2.93,-3.66,1.72,-0.59,
4.5,-5.10,-1.28,-2.93,-3.70,1.65,-0.54,
4.5,-5.10,-1.28,-2.93,-3.73,1.57,-0.49,
4.5,-5.55,-1.64,-2.42,-3.73,1.57,-0.49,
4.504,-5.55,-1.64,-2.42,-3.74,1.50,-0.44,
4.506,-5.78,-1.97,-1.57,-3.74,1.50,-0.44,
4.506,-5.78,-1.97,-1.57,-3.73,1.42,-0.37,
4.507,-5.78,-1.97,-1.57,-3.70,1.34,-0.31,
4.509,-5.88,-2.24,-0.68,-3.70,1.34,-0.31,
4.509,-5.88,-2.24,-0.68,-3.65,1.26,-0.24,
4.511,-5.88,-2.24,-0.68,-3.59,1.18,-0.17,
4.514,-5.91,-2.42,0.19,-3.59,1.18,-0.17,
4.514,-5.91,-2.42,0.19,-3.51,1.11,-0.10,
4.516,-5.91,-2.42,0.19,-3.42,1.03,-0.04,
4.518,-5.82,-2.49,1.06,-3.42,1.03,-0.04,
4.519,-5.82,-2.49,1.06,-3.30,0.95,0.03,
4.523,-5.82,-2.49,1.06,-3.18,0.88,0.09,
4.525,-5.82,-2.49,1.06,-3.03,0.80,0.16,
4.526,-5.54,-2.46,1.97,-3.03,0.80,0.16,
4.527,-5.54,-2.46,1.97,-2.88,0.73,0.22,
4.529,-5.20,-2.39,2.90,-2.88,0.73,0.22,
4.529,-5.20,-2.39,2.90,-2.71,0.66,0.27,
4.532,-5.20,-2.39,2.90,-2.52,0.59,0.32,
4.534,-4.78,-2.37,3.76,-2.52,0.59,0.32,
4.534,-4.78,-2.37,3.76,-2.33,0.53,0.36,
4.536,-4.78,-2.37,3.76,-2.13,0.47,0.39,
4.541,-4.28,-2.37,4.53,-2.13,0.47,0.39,
4.543,-4.28,-2.37,4.53,-1.91,0.42,0.43,
4.544,-4.28,-2.37,4.53,-1.70,0.37,0.45,
4.545,-3.74,-2.31,5.01,-1.70,0.37,0.45,
4.545,-3.74,-2.31,5.01,-1.48,0.32,0.47,
4.546,-3.74,-2.31,5.01,-1.25,0.28,0.48,
4.549,-3.11,-2.23,5.19,-1.25,0.28,0.48,
4.549,-3.11,-2.23,5.19,-1.02,0.23,0.48,
4.551,-3.11,-2.23,5.19,-0.80,0.19,0.48,
4.557,-2.58,-2.09,5.03,-0.80,0.19,0.48,
4.559,-2.58,-2.09,5.03,-0.58,0.16,0.47,
4.56,-2.58,-2.09,5.03,-0.35,0.11,0.45,
4.561,-2.58,-2.09,5.03,-0.14,0.07,0.43,
4.561,-2.12,-1.85,4.54,-0.14,0.07,0.43,
4.562,-2.12,-1.85,4.54,0.07,0.02,0.39,
4.564,-2.12,-1.85,4.54,0.27,-0.02,0.36,
4.565,-1.81,-1.58,3.96,0.27,-0.02,0.36,
4.567,-1.81,-1.58,3.96,0.46,-0.07,0.31,
4.57,-1.62,-1.41,3.34,0.46,-0.07,0.31,
4.57,-1.62,-1.41,3.34,0.63,-0.11,0.27,
4.575,-1.62,-1.41,3.34,0.80,-0.16,0.23,
4.577,-1.62,-1.41,3.34,0.95,-0.21,0.19,
4.578,-1.62,-1.41,3.34,1.09,-0.26,0.14,
4.579,-1.61,-1.27,2.71,1.09,-0.26,0.14,
4.581,-1.61,-1.27,2.71,1.22,-0.30,0.11,
4.581,-1.61,-1.27,2.71,1.33,-0.35,0.07,
4.581,-1.74,-1.16,2.09,1.33,-0.35,0.07,
4.591,-1.74,-1.16,2.09,1.43,-0.39,0.04,
4.591,-1.89,-1.06,1.52,1.43,-0.39,0.04,
4.592,-2.11,-0.98,1.07,1.43,-0.39,0.04,
4.592,-2.11,-0.98,1.07,1.52,-0.43,0.02,
4.592,-2.11,-0.98,1.07,1.59,-0.47,0.00,
4.593,-2.11,-0.98,1.07,1.66,-0.50,-0.01,
4.593,-2.30,-0.89,0.82,1.66,-0.50,-0.01,
4.594,-2.30,-0.89,0.82,1.71,-0.53,-0.02,
4.596,-2.30,-0.89,0.82,1.75,-0.56,-0.02,
4.598,-2.30,-0.89,0.82,1.78,-0.58,-0.02,
4.598,-2.39,-0.72,0.58,1.78,-0.58,-0.02,
4.601,-2.39,-0.72,0.58,1.80,-0.60,-0.01,
4.603,-2.39,-0.72,0.58,1.81,-0.62,0.00,
4.604,-2.46,-0.52,0.36,1.81,-0.62,0.00,
4.607,-2.46,-0.52,0.36,1.81,-0.62,0.02,
4.609,-2.45,-0.24,0.23,1.81,-0.62,0.02,
4.61,-2.45,-0.24,0.23,1.80,-0.63,0.04,
4.613,-2.45,-0.24,0.23,1.78,-0.62,0.06,
4.614,-2.43,0.18,-0.02,1.78,-0.62,0.06,
4.614,-2.43,0.18,-0.02,1.76,-0.62,0.08,
4.616,-2.43,0.18,-0.02,1.73,-0.61,0.10,
4.618,-2.26,0.66,-0.24,1.73,-0.61,0.10,
4.619,-2.26,0.66,-0.24,1.69,-0.60,0.13,
4.623,-2.26,0.66,-0.24,1.65,-0.59,0.15,
4.624,-2.26,0.66,-0.24,1.61,-0.58,0.17,
4.624,-2.11,1.17,-0.40,1.61,-0.58,0.17,
4.628,-2.11,1.17,-0.40,1.56,-0.56,0.19,
4.628,-2.11,1.17,-0.40,1.51,-0.54,0.21,
4.629,-1.89,1.75,-0.52,1.51,-0.54,0.21,
4.631,-1.89,1.75,-0.52,1.46,-0.53,0.22,
4.633,-1.59,2.29,-0.62,1.46,-0.53,0.22,
4.655,-1.59,2.29,-0.62,1.40,-0.51,0.23,
4.656,-1.59,2.29,-0.62,1.34,-0.50,0.23,
4.656,-1.25,2.75,-0.74,1.34,-0.50,0.23,
4.657,-1.25,2.75,-0.74,1.28,-0.49,0.23,
4.657,-1.25,2.75,-0.74,1.21,-0.47,0.23,
4.658,-0.91,3.12,-0.84,1.21,-0.47,0.23,
4.658,-0.91,3.12,-0.84,1.14,-0.46,0.22,
4.659,-0.91,3.12,-0.84,1.07,-0.45,0.21,
4.659,-0.91,3.12,-0.84,0.99,-0.45,0.19,
4.659,-0.55,3.31,-0.94,0.99,-0.45,0.19,
4.66,-0.55,3.31,-0.94,0.92,-0.44,0.17,
4.661,-0.17,3.30,-0.99,0.92,-0.44,0.17,
4.661,-0.17,3.30,-0.99,0.84,-0.44,0.15,
4.661,-0.17,3.30,-0.99,0.75,-0.44,0.12,
4.662,0.22,3.08,-0.81,0.75,-0.44,0.12,
4.662,0.22,3.08,-0.81,0.66,-0.43,0.10,
4.663,0.22,3.08,-0.81,0.55,-0.41,0.08,
4.663,0.55,2.72,-0.62,0.55,-0.41,0.08,
4.664,0.55,2.72,-0.62,0.46,-0.39,0.05,
4.669,0.55,2.72,-0.62,0.35,-0.38,0.03,
4.67,0.82,2.26,-0.74,0.35,-0.38,0.03,
4.67,0.82,2.26,-0.74,0.24,-0.36,0.02,
4.67,0.82,2.26,-0.74,0.12,-0.34,0.01,
4.675,0.96,1.76,-1.21,0.12,-0.34,0.01,
4.676,0.96,1.76,-1.21,-0.01,-0.33,0.01,
4.676,0.96,1.76,-1.21,-0.14,-0.32,0.01,
4.678,1.07,1.26,-1.88,-0.14,-0.32,0.01,
4.679,1.07,1.26,-1.88,-0.28,-0.32,0.01,
4.681,1.07,1.26,-1.88,-0.42,-0.33,0.02,
4.683,1.17,0.86,-2.61,-0.42,-0.33,0.02,
4.684,1.17,0.86,-2.61,-0.57,-0.34,0.04,
4.685,1.17,0.86,-2.61,-0.72,-0.35,0.06,
4.693,1.17,0.86,-2.61,-0.87,-0.37,0.09,
4.695,1.42,0.56,-3.14,-0.87,-0.37,0.09,
4.695,1.42,0.56,-3.14,-1.03,-0.39,0.12,
4.696,1.42,0.56,-3.14,-1.19,-0.40,0.15,
4.696,1.74,0.31,-3.50,-1.19,-0.40,0.15,
4.696,1.74,0.31,-3.50,-1.34,-0.42,0.19,
4.699,1.74,0.31,-3.50,-1.50,-0.44,0.22,
4.699,2.14,0.02,-3.81,-1.50,-0.44,0.22,
4.7,2.14,0.02,-3.81,-1.65,-0.45,0.25,
4.704,2.58,-0.22,-3.73,-1.65,-0.45,0.25,
4.704,2.58,-0.22,-3.73,-1.80,-0.46,0.28,
4.708,2.58,-0.22,-3.73,-1.94,-0.46,0.31,
4.708,2.58,-0.22,-3.73,-2.07,-0.44,0.34,
4.709,3.09,-0.36,-3.02,-2.07,-0.44,0.34,
4.71,3.09,-0.36,-3.02,-2.19,-0.41,0.36,
4.713,3.59,-0.43,-1.96,-2.19,-0.41,0.36,
4.714,3.59,-0.43,-1.96,-2.30,-0.36,0.37,
4.715,3.59,-0.43,-1.96,-2.38,-0.30,0.38,
4.718,4.05,-0.33,-0.54,-2.38,-0.30,0.38,
4.718,4.05,-0.33,-0.54,-2.45,-0.22,0.37,
4.72,4.05,-0.33,-0.54,-2.50,-0.13,0.36,
4.724,4.41,-0.06,1.24,-2.50,-0.13,0.36,
4.726,4.41,-0.06,1.24,-2.53,-0.02,0.35,
4.727,4.41,-0.06,1.24,-2.54,0.10,0.32,
4.728,4.41,-0.06,1.24,-2.52,0.24,0.28,
4.728,4.52,0.27,3.12,-2.52,0.24,0.28,
4.73,4.52,0.27,3.12,-2.48,0.38,0.23,
4.732,4.42,0.66,4.74,-2.48,0.38,0.23,
4.733,4.42,0.66,4.74,-2.42,0.52,0.18,
4.736,4.42,0.66,4.74,-2.33,0.66,0.13,
4.738,4.11,1.05,5.95,-2.33,0.66,0.13,
4.739,4.11,1.05,5.95,-2.23,0.78,0.06,
4.741,4.11,1.05,5.95,-2.10,0.89,-0.01,
4.742,3.65,1.42,6.68,-2.10,0.89,-0.01,
4.743,3.65,1.42,6.68,-1.95,0.97,-0.08,
4.746,3.65,1.42,6.68,-1.78,1.03,-0.15,
4.748,2.95,1.78,7.04,-1.78,1.03,-0.15,
4.749,2.95,1.78,7.04,-1.60,1.05,-0.23,
4.751,2.95,1.78,7.04,-1.40,1.05,-0.31,
4.752,2.16,2.08,7.39,-1.40,1.05,-0.31,
4.753,2.16,2.08,7.39,-1.18,1.02,-0.38,
4.755,2.16,2.08,7.39,-0.96,0.97,-0.46,
4.758,1.42,2.21,8.16,-0.96,0.97,-0.46,
4.758,1.42,2.21,8.16,-0.71,0.90,-0.54,
4.76,1.42,2.21,8.16,-0.46,0.81,-0.61,
4.762,0.87,1.95,9.45,-0.46,0.81,-0.61,
4.763,0.87,1.95,9.45,-0.21,0.73,-0.67,
4.765,0.87,1.95,9.45,0.05,0.64,-0.74,
4.767,0.81,1.15,10.51,0.05,0.64,-0.74,
4.767,0.81,1.15,10.51,0.30,0.55,-0.79,
4.77,0.81,1.15,10.51,0.54,0.45,-0.84,
4.775,0.81,1.15,10.51,0.76,0.32,-0.88,
4.776,1.28,-0.11,9.25,0.76,0.32,-0.88,
4.778,1.28,-0.11,9.25,0.95,0.14,-0.91,
4.778,1.28,-0.11,9.25,1.11,-0.08,-0.93,
4.779,1.86,-1.44,5.47,1.11,-0.08,-0.93,
4.78,1.86,-1.44,5.47,1.23,-0.35,-0.93,
4.783,2.28,-2.18,1.69,1.23,-0.35,-0.93,
4.784,2.28,-2.18,1.69,1.33,-0.65,-0.93,
4.784,2.28,-2.18,1.69,1.41,-0.95,-0.91,
4.794,2.56,-2.19,-0.70,1.41,-0.95,-0.91,
4.795,2.56,-2.19,-0.70,1.47,-1.24,-0.88,
4.795,2.56,-2.19,-0.70,1.52,-1.51,-0.84,
4.796,2.83,-2.09,-1.59,1.52,-1.51,-0.84,
4.796,2.83,-2.09,-1.59,1.56,-1.74,-0.78,
4.797,2.83,-2.09,-1.59,1.60,-1.91,-0.70,
4.797,3.11,-2.44,-1.17,1.60,-1.91,-0.70,
4.803,3.11,-2.44,-1.17,1.62,-2.01,-0.61,
4.826,3.11,-2.44,-1.17,1.63,-2.01,-0.49,
4.827,3.31,-3.25,0.25,1.63,-2.01,-0.49,
4.828,3.31,-3.25,0.25,1.63,-1.92,-0.36,
4.828,3.31,-3.25,0.25,1.63,-1.73,-0.22,
4.828,3.31,-3.25,0.25,1.61,-1.46,-0.06,
4.829,3.31,-3.25,0.25,1.59,-1.12,0.10,
4.829,3.42,-4.04,1.78,1.59,-1.12,0.10,
4.83,3.38,-4.60,2.19,1.59,-1.12,0.10,
4.83,3.38,-4.60,2.19,1.56,-0.73,0.27,
4.831,3.38,-4.60,2.19,1.50,-0.31,0.42,
4.831,3.13,-4.61,1.11,1.50,-0.31,0.42,
4.831,3.13,-4.61,1.11,1.44,0.12,0.58,
4.832,3.13,-4.61,1.11,1.36,0.54,0.72,
4.832,3.13,-4.61,1.11,1.28,0.92,0.83,
4.833,2.98,-3.74,-0.84,1.28,0.92,0.83,
4.833,2.98,-3.74,-0.84,1.20,1.27,0.92,
4.833,2.98,-3.74,-0.84,1.12,1.57,0.98,
4.834,2.99,-2.33,-2.68,1.12,1.57,0.98,
4.834,2.99,-2.33,-2.68,1.04,1.80,1.00,
4.834,3.08,-0.70,-3.63,1.04,1.80,1.00,
4.835,3.08,-0.70,-3.63,0.96,1.96,1.00,
4.835,3.08,-0.70,-3.63,0.88,2.08,0.96,
4.841,2.87,0.56,-2.94,0.88,2.08,0.96,
4.843,2.87,0.56,-2.94,0.82,2.14,0.91,
4.843,2.87,0.56,-2.94,0.76,2.15,0.84,
4.844,2.36,1.25,-1.26,0.76,2.15,0.84,
4.844,2.36,1.25,-1.26,0.71,2.14,0.75,
4.845,2.36,1.25,-1.26,0.66,2.09,0.66,
4.848,1.61,1.42,0.04,0.66,2.09,0.66,
4.849,1.61,1.42,0.04,0.61,2.01,0.56,
4.85,1.61,1.42,0.04,0.56,1.90,0.47,
4.852,0.59,1.30,0.43,0.56,1.90,0.47,
4.853,0.59,1.30,0.43,0.52,1.76,0.37,
4.857,0.59,1.30,0.43,0.47,1.59,0.28,
4.858,-0.53,1.18,-0.27,0.47,1.59,0.28,
4.86,-0.53,1.18,-0.27,0.42,1.39,0.20,
4.861,-0.53,1.18,-0.27,0.37,1.17,0.13,
4.862,-0.53,1.18,-0.27,0.31,0.92,0.06,
4.862,-1.79,1.09,-1.56,0.31,0.92,0.06,
4.864,-1.79,1.09,-1.56,0.24,0.66,-0.00,
4.867,-2.96,1.03,-2.92,0.24,0.66,-0.00,
4.867,-2.96,1.03,-2.92,0.16,0.40,-0.05,
4.869,-2.96,1.03,-2.92,0.08,0.14,-0.09,
4.874,-3.83,0.94,-3.93,0.08,0.14,-0.09,
4.875,-3.83,0.94,-3.93,0.00,-0.10,-0.12,
4.875,-3.83,0.94,-3.93,-0.09,-0.32,-0.15,
4.877,-4.30,0.71,-4.24,-0.09,-0.32,-0.15,
4.877,-4.30,0.71,-4.24,-0.18,-0.50,-0.16,
4.879,-4.30,0.71,-4.24,-0.27,-0.64,-0.15,
4.882,-4.46,0.29,-3.93,-0.27,-0.64,-0.15,
4.882,-4.46,0.29,-3.93,-0.37,-0.74,-0.14,
4.884,-4.46,0.29,-3.93,-0.46,-0.81,-0.12,
4.886,-4.33,-0.42,-3.38,-0.46,-0.81,-0.12,
4.887,-4.33,-0.42,-3.38,-0.56,-0.85,-0.09,
4.89,-4.33,-0.42,-3.38,-0.66,-0.86,-0.05,
4.892,-3.98,-1.25,-2.96,-0.66,-0.86,-0.05,
4.892,-3.98,-1.25,-2.96,-0.75,-0.84,-0.00,
4.896,-3.98,-1.25,-2.96,-0.86,-0.81,0.05,
4.898,-3.98,-1.25,-2.96,-0.96,-0.76,0.11,
4.898,-3.51,-2.02,-3.04,-0.96,-0.76,0.11,
4.9,-3.51,-2.02,-3.04,-1.05,-0.71,0.18,
4.902,-2.94,-2.67,-3.62,-1.05,-0.71,0.18,
4.902,-2.94,-2.67,-3.62,-1.15,-0.66,0.24,
4.908,-2.94,-2.67,-3.62,-1.25,-0.61,0.31,
4.909,-2.29,-3.18,-4.40,-1.25,-0.61,0.31,
4.909,-2.29,-3.18,-4.40,-1.34,-0.56,0.39,
4.91,-2.29,-3.18,-4.40,-1.43,-0.52,0.46,
4.912,-1.49,-3.62,-4.86,-1.43,-0.52,0.46,
4.912,-1.49,-3.62,-4.86,-1.52,-0.49,0.53,
4.914,-1.49,-3.62,-4.86,-1.60,-0.45,0.60,
4.917,-0.48,-4.05,-4.80,-1.60,-0.45,0.60,
4.917,-0.48,-4.05,-4.80,-1.67,-0.41,0.67,
4.919,-0.48,-4.05,-4.80,-1.73,-0.37,0.73,
4.923,0.65,-4.30,-3.87,-1.73,-0.37,0.73,
4.923,0.65,-4.30,-3.87,-1.78,-0.31,0.79,
4.924,0.65,-4.30,-3.87,-1.81,-0.24,0.84,
4.928,1.79,-4.27,-2.48,-1.81,-0.24,0.84,
4.928,1.79,-4.27,-2.48,-1.83,-0.16,0.88,
4.929,1.79,-4.27,-2.48,-1.83,-0.06,0.92,
4.932,2.68,-4.02,-1.12,-1.83,-0.06,0.92,
4.932,2.68,-4.02,-1.12,-1.82,0.05,0.95,
4.934,2.68,-4.02,-1.12,-1.79,0.17,0.96,
4.937,3.25,-3.58,-0.09,-1.79,0.17,0.96,
4.938,3.25,-3.58,-0.09,-1.75,0.29,0.97,
4.939,3.25,-3.58,-0.09,-1.68,0.41,0.97,
4.942,3.50,-3.01,0.56,-1.68,0.41,0.97,
4.942,3.50,-3.01,0.56,-1.60,0.52,0.95,
4.945,3.50,-3.01,0.56,-1.52,0.62,0.92,
4.947,3.44,-2.46,1.03,-1.52,0.62,0.92,
4.947,3.44,-2.46,1.03,-1.41,0.72,0.89,
4.949,3.44,-2.46,1.03,-1.30,0.80,0.84,
4.952,3.12,-1.96,1.41,-1.30,0.80,0.84,
4.952,3.12,-1.96,1.41,-1.18,0.86,0.79,
4.957,3.12,-1.96,1.41,-1.05,0.91,0.73,
4.958,2.59,-1.58,1.73,-1.05,0.91,0.73,
4.958,2.59,-1.58,1.73,-0.91,0.93,0.66,
4.959,2.59,-1.58,1.73,-0.77,0.93,0.58,
4.962,1.89,-1.33,1.92,-0.77,0.93,0.58,
4.962,1.89,-1.33,1.92,-0.62,0.91,0.49,
4.964,1.89,-1.33,1.92,-0.48,0.85,0.41,
4.982,1.03,-1.13,1.86,-0.48,0.85,0.41,
4.983,1.03,-1.13,1.86,-0.33,0.78,0.32,
4.983,1.03,-1.13,1.86,-0.19,0.69,0.23,
4.983,0.11,-1.02,1.63,-0.19,0.69,0.23,
4.984,0.11,-1.02,1.63,-0.04,0.57,0.14,
4.984,0.11,-1.02,1.63,0.10,0.45,0.06,
4.985,-0.82,-0.98,1.22,0.10,0.45,0.06,
